,attitude.roll,attitude.pitch,attitude.yaw,gravity.x,gravity.y,gravity.z,rotationRate.x,rotationRate.y,rotationRate.z,userAcceleration.x,userAcceleration.y,userAcceleration.z
0,0.395532,-1.257112,-0.071002,0.11888499999999999,0.951203,-0.28473000000000004,-1.546683,1.047916,-0.613391,0.280361,0.23579299999999997,0.167496
1,0.417926,-1.292907,-0.07084,0.11133399999999999,0.961636,-0.250702,-1.762793,1.2304059999999999,-0.774299,-0.060507000000000005,-0.14796099999999998,0.11033699999999999
2,0.44383900000000004,-1.333914,-0.070988,0.100763,0.972074,-0.211918,-1.8802470000000002,1.287914,-0.934359,-0.016350999999999997,-0.255735,0.15068499999999999
3,0.44885699999999995,-1.376393,-0.085655,0.08381799999999999,0.9811629999999999,-0.174024,-1.799795,0.715299,-1.129616,0.059080999999999995,-0.13631400000000002,0.155881
4,0.400594,-1.416807,-0.14087,0.059801,0.988167,-0.141209,-1.559593,0.045326,-1.358884,0.11327999999999999,-0.044913999999999996,0.088306
5,0.260986,-1.452963,-0.275278,0.030323000000000003,0.993066,-0.11353699999999999,-1.3146309999999999,-0.624116,-1.458864,0.176784,-0.077691,0.021282
6,0.036978,-1.4825270000000002,-0.48114399999999996,0.003257,0.996107,-0.088031,-1.318025,-1.034559,-1.112258,0.083902,-0.23594400000000001,0.050357
7,-0.278318,-1.506289,-0.775805,-0.017686,0.99792,-0.061898,-1.2947030000000002,-1.114326,-0.898302,-0.041289,-0.211604,0.034036000000000004
8,-0.779906,-1.5220209999999998,-1.25429,-0.0342,0.998811,-0.034578,-1.382227,-1.1542649999999999,-0.691628,-0.099101,-0.21171700000000002,-0.010115
9,-1.40792,-1.522429,-1.865504,-0.047583999999999994,0.9988309999999999,-0.00782,-1.204286,-0.692709,-0.65252,-0.12140699999999999,-0.195211,-0.072533
10,-1.781194,-1.508589,-2.233396,-0.060697,0.998066,0.012962000000000001,-0.9068360000000001,-0.033253,-0.656628,-0.142733,-0.12922999999999998,-0.07562999999999999
11,-1.9329310000000002,-1.4910430000000001,-2.391035,-0.074424,0.996821,0.028194999999999998,-0.738354,0.37541399999999997,-0.7029770000000001,-0.191217,-0.133403,-0.191174
12,-1.9819849999999999,-1.472241,-2.453423,-0.09013,0.9951469999999999,0.039300999999999996,-0.538247,0.8991709999999999,-0.78664,-0.16579000000000002,-0.07347100000000001,-0.219385
13,-2.011721,-1.454552,-2.505816,-0.104835,0.993251,0.049473,-0.713575,1.229324,-0.614168,0.196143,0.208851,-0.11931199999999999
14,-2.0456950000000003,-1.438676,-2.5629619999999997,-0.11710699999999999,0.9912850000000001,0.06021,-0.597076,0.8919239999999999,-0.522123,0.580013,0.35139699999999996,-0.13162100000000002
15,-2.058174,-1.426451,-2.5802169999999998,-0.127049,0.9896,0.067339,-0.266922,-0.110893,-0.44375600000000004,0.6822699999999999,0.392464,-0.150118
16,-2.059452,-1.417397,-2.571854,-0.134873,0.9882569999999999,0.071707,-0.086637,-0.608928,-0.46215500000000004,0.343018,0.39605,-0.32926
17,-2.0344290000000003,-1.4082860000000001,-2.534944,-0.144675,0.9868239999999999,0.072335,0.102128,-0.48880500000000005,-0.562471,-0.010247,0.511406,-0.42258500000000004
18,-2.002968,-1.401006,-2.49759,-0.1534,0.98562,0.070756,0.133705,-0.17535,-0.3896,-0.20393,0.676733,-0.48062299999999997
19,-1.960923,-1.3988479999999999,-2.454201,-0.158207,0.985253,0.065055,0.48391899999999993,0.144101,-0.127985,-0.001308,0.804359,-0.383201
20,-1.8432540000000002,-1.4064649999999999,-2.336234,-0.15751700000000002,0.9865280000000001,0.044011,1.353055,0.095231,0.150545,-0.179092,0.377944,-0.392385
21,-1.6481689999999998,-1.4245290000000002,-2.152515,-0.145263,0.9893219999999999,0.011262000000000001,1.602695,0.8932899999999999,0.9567049999999999,-0.302643,0.349042,-0.572282
22,-1.348228,-1.44753,-1.86293,-0.119871,0.9924120000000001,-0.027129,2.093153,0.556359,1.4060110000000001,-0.15584,0.508045,-0.8028270000000001
23,-0.792239,-1.4489239999999999,-1.321895,-0.086515,0.992583,-0.085339,3.367631,1.307806,1.792101,0.709852,0.45352299999999995,-0.328281
24,-0.23659299999999997,-1.403355,-0.801307,-0.039056,0.986014,-0.161986,3.651275,1.972889,2.256839,0.765039,0.571237,0.621459
25,0.007364,-1.348042,-0.561316,0.001627,0.9752930000000001,-0.220888,2.651563,-0.487403,1.934678,0.486533,0.530612,0.682466
26,0.137764,-1.291984,-0.413866,0.037792,0.961383,-0.27258899999999997,2.955029,-0.4996,2.0575229999999998,-0.581387,0.414533,0.142172
27,0.194719,-1.2385629999999999,-0.323547,0.063105,0.9453159999999999,-0.31997800000000004,2.0941799999999997,-2.070478,1.637984,-0.877971,0.14585499999999998,0.569291
28,0.22836599999999999,-1.188021,-0.253232,0.084552,0.927632,-0.363789,2.3586560000000003,-1.0671629999999999,1.718662,-0.726626,0.12140999999999999,-0.048214
29,0.24314899999999998,-1.119184,-0.211443,0.10507000000000001,0.8997450000000001,-0.42357100000000003,3.607582,-1.184323,1.6965580000000002,-0.38250500000000004,0.229375,-0.143019
30,0.255824,-1.049654,-0.174183,0.12598099999999998,0.867251,-0.481662,2.700335,-0.9757969999999999,1.7508419999999998,-0.13960699999999998,-0.080599,0.5727869999999999
31,0.28406,-0.991007,-0.134167,0.15353599999999998,0.836578,-0.525888,2.66663,0.093764,1.7738049999999999,-0.149202,-0.094787,0.268823
32,0.30905900000000003,-0.9264870000000001,-0.10559,0.182693,0.799515,-0.572184,2.8575459999999997,-0.00244,1.6908729999999998,-0.179168,-0.095932,0.380152
33,0.324623,-0.865509,-0.08138300000000001,0.20676,0.761426,-0.614391,2.534776,-0.38898499999999997,1.666681,0.068036,-0.113843,0.481487
34,0.321573,-0.808095,-0.058147000000000004,0.21835700000000002,0.722973,-0.655459,2.454772,-1.369688,1.632127,0.006222,-0.268276,0.56853
35,0.305081,-0.754196,-0.034405,0.21891599999999997,0.684703,-0.6951649999999999,2.149206,-1.773149,1.561075,-0.257322,-0.282634,0.695516
36,0.282197,-0.7148939999999999,-0.015137000000000001,0.210287,0.655537,-0.725291,1.363956,-1.777023,1.0802370000000001,-0.47290600000000005,-0.453862,0.759714
37,0.25993299999999997,-0.692789,0.001318,0.197765,0.638686,-0.743617,0.642848,-1.530609,0.822784,-0.30051700000000003,-0.624937,0.7276560000000001
38,0.246331,-0.686643,0.015359000000000001,0.188586,0.633944,-0.750031,-0.16412100000000002,-0.783885,0.46581300000000003,-0.174242,-0.724017,0.570008
39,0.25104,-0.699665,0.025256,0.190049,0.643961,-0.741075,-1.047364,0.301938,0.08971599999999999,-0.166489,-0.835642,0.19603099999999998
40,0.271808,-0.7300760000000001,0.037906,0.200045,0.666926,-0.717766,-1.955543,0.748145,0.11377899999999999,0.054899,-0.791972,-0.024468
41,0.307112,-0.783862,0.06161900000000001,0.21409099999999998,0.70602,-0.675054,-3.4137230000000005,1.0778860000000001,-0.096587,0.140584,-0.6184189999999999,0.298055
42,0.35790900000000003,-0.853771,0.080829,0.230208,0.753764,-0.6155,-3.050887,2.433923,-0.661948,0.069597,-0.55453,0.512076
43,0.396488,-0.91254,0.089806,0.23624,0.79106,-0.564278,-3.0483540000000002,0.697001,-1.0656290000000002,-0.864124,0.9650129999999999,-0.313713
44,0.407494,-0.9725360000000001,0.075792,0.223202,0.826317,-0.517084,-2.264767,0.981922,-1.601041,1.0489389999999998,1.9550400000000001,0.21766100000000002
45,0.389811,-1.007495,0.064618,0.20291800000000002,0.8454969999999999,-0.493917,-1.267967,-1.175791,-0.735667,0.5895630000000001,0.389534,0.393804
46,0.36409899999999995,-1.0281959999999999,0.053564,0.183879,0.856369,-0.482508,-0.810986,-0.58418,-0.6947770000000001,-0.42805,-0.551666,0.11577899999999999
47,0.34120500000000004,-1.058886,0.034449,0.163911,0.8718100000000001,-0.461599,-1.448386,-0.078952,-1.278853,-0.551804,-0.559692,0.471029
48,0.304512,-1.100165,-0.017018000000000002,0.135954,0.891282,-0.43258,-1.6776509999999998,0.8824549999999999,-2.010214,-0.457762,-0.355134,0.481225
49,0.282072,-1.147363,-0.076556,0.11436800000000001,0.911683,-0.39464699999999997,-2.040718,1.770097,-1.7628549999999998,-0.016102,1.083983,0.48021800000000003
50,0.283604,-1.198089,-0.113157,0.101889,0.9313450000000001,-0.349582,-2.2628369999999998,1.6415689999999998,-1.130787,0.42940600000000007,1.228003,0.45286800000000005
51,0.29830100000000004,-1.239644,-0.12046099999999998,0.095552,0.9456680000000001,-0.310762,-1.7699790000000002,0.808645,-0.523799,0.444274,0.32986,0.22604499999999997
52,0.311345,-1.274528,-0.12258599999999999,0.08943200000000001,0.956433,-0.277902,-1.6478580000000003,0.803358,-0.639376,-0.047744999999999996,-0.09122899999999999,0.11371700000000001
53,0.31924600000000003,-1.312827,-0.131798,0.080063,0.96691,-0.242211,-1.838055,0.8386629999999999,-0.77855,-0.061158000000000004,-0.165991,0.083901
54,0.303912,-1.353325,-0.16041,0.06456100000000001,0.9764459999999999,-0.205852,-1.814495,0.376172,-1.0245520000000001,-0.030137,-0.23294600000000001,0.058574
55,0.233897,-1.39205,-0.22882,0.041201,0.984067,-0.172926,-1.5662129999999999,-0.406702,-1.265369,0.01431,-0.145902,0.099409
56,0.081453,-1.4239760000000001,-0.36739099999999997,0.0119,0.989241,-0.145772,-1.319436,-0.93437,-1.390088,0.04674,-0.170027,0.088643
57,-0.131681,-1.4498879999999998,-0.5598270000000001,-0.015831,0.9927,-0.119526,-1.367967,-1.292006,-1.156028,0.061241,-0.273904,0.0025210000000000002
58,-0.405886,-1.473433,-0.81215,-0.038359,0.9952639999999999,-0.08926,-1.55623,-0.950334,-0.9216620000000001,-0.034013,-0.330561,-0.014332
59,-0.765651,-1.489841,-1.158336,-0.055995,0.996725,-0.058252,-1.468005,-0.640166,-0.775097,-0.070332,-0.317602,-0.046195
60,-1.184218,-1.493747,-1.57053,-0.071226,0.997033,-0.028993,-1.447171,-0.256823,-0.7540789999999999,-0.0264,-0.181222,-0.06715299999999999
61,-1.544263,-1.484367,-1.930859,-0.086224,0.996267,-0.002288,-1.2604540000000002,0.011925,-0.7242770000000001,0.09032799999999999,-0.103582,-0.056794000000000004
62,-1.759053,-1.468412,-2.149876,-0.100345,0.994763,0.019117,-0.958973,0.39858699999999997,-0.710916,0.11116400000000001,-0.133267,-0.11065499999999999
63,-1.8429360000000001,-1.451965,-2.2483400000000002,-0.114141,0.9929479999999999,0.031853,-0.620296,0.815759,-0.634309,0.195974,0.030458999999999996,-0.260536
64,-1.884061,-1.43794,-2.309864,-0.125979,0.991188,0.040808,-0.539697,1.063213,-0.515491,0.201586,0.253808,-0.35079099999999996
65,-1.9045400000000001,-1.4269040000000002,-2.3452040000000003,-0.135447,0.989665,0.046961,-0.30088000000000004,0.40792399999999995,-0.420048,0.328165,0.36748200000000003,-0.161707
66,-1.906143,-1.418241,-2.346223,-0.143464,0.9883860000000001,0.049999,-0.09904299999999999,-0.227818,-0.385776,0.454088,0.27643,-0.027187
67,-1.9023990000000002,-1.408959,-2.336027,-0.152321,0.986933,0.052447,-0.039058999999999996,-0.336036,-0.547588,0.427727,0.213354,-0.100619
68,-1.8830330000000002,-1.3969040000000001,-2.308118,-0.16462000000000002,0.9849190000000001,0.053139,0.061312,-0.445593,-0.676002,0.13916900000000001,0.413458,-0.245613
69,-1.868352,-1.385519,-2.286943,-0.176095,0.982885,0.054001,-0.035528,-0.212677,-0.497515,-0.277778,0.780909,-0.406006
70,-1.8653990000000003,-1.378894,-2.280887,-0.182481,0.981643,0.05537,0.024536000000000002,-0.139284,-0.255772,-0.087737,0.771698,-0.270687
71,-1.8119720000000001,-1.379524,-2.224328,-0.184577,0.9817629999999999,0.045399,0.901336,-0.159358,0.00782,-0.021126,0.7561060000000001,-0.158085
72,-1.6743430000000001,-1.387674,-2.091042,-0.181095,0.9832799999999999,0.018819,1.432873,0.672729,0.319183,-0.290599,0.506817,-0.457891
73,-1.500573,-1.396236,-1.926378,-0.173217,0.9848030000000001,-0.012184,1.490867,0.38661599999999996,0.423572,-0.157838,0.24627600000000002,-0.8623280000000001
74,-1.2666620000000002,-1.4030120000000001,-1.6949509999999999,-0.159306,0.985957,-0.050001,2.218454,0.387461,0.912558,0.19078399999999998,0.383473,-0.823335
75,-0.853757,-1.395532,-1.291344,-0.13141,0.9846809999999999,-0.114569,3.794653,0.9999620000000001,1.684425,0.686022,0.44212299999999993,-0.377893
76,-0.385368,-1.350275,-0.8465389999999999,-0.082217,0.975784,-0.202679,4.325749,1.8021669999999999,2.541684,0.683581,0.400376,0.48458500000000004
77,-0.107076,-1.291608,-0.578242,-0.02945,0.9612790000000001,-0.273984,3.028139,0.183748,2.401166,0.308548,0.44689300000000004,0.722775
78,0.052057000000000006,-1.246599,-0.409605,0.016575,0.9479069999999999,-0.318106,2.167318,-0.10266700000000001,2.312199,-0.385563,0.31492600000000004,0.595587
79,0.12369400000000001,-1.2057360000000001,-0.306922,0.044045999999999995,0.9341020000000001,-0.354269,1.51352,-2.04544,1.741828,-0.849176,0.222712,0.297933
80,0.157578,-1.168166,-0.22807399999999997,0.061489,0.920034,-0.386977,1.9415330000000002,-1.519656,1.752689,-0.592418,-0.037099,0.44442600000000004
81,0.203072,-1.1095549999999998,-0.165372,0.089758,0.895501,-0.435908,3.2985949999999997,-0.592201,1.741752,-0.276053,0.33152,-0.393407
82,0.201253,-1.033685,-0.135442,0.102278,0.85919,-0.501324,3.324901,-1.718017,1.407957,-0.505079,0.05851900000000001,0.26505700000000004
83,0.212941,-0.976667,-0.096648,0.118302,0.828636,-0.54714,2.277715,-0.30748000000000003,1.7545529999999998,0.08755399999999999,-0.041237,0.459265
84,0.255717,-0.9222959999999999,-0.057687,0.152772,0.796991,-0.584348,2.5245580000000003,0.643296,1.669601,-0.19534400000000002,-0.007898,0.26917800000000003
85,0.279237,-0.862092,-0.030895,0.17938800000000002,0.759206,-0.625638,2.720628,-0.180608,1.611137,-0.239965,-0.101186,0.402798
86,0.281045,-0.798795,-0.006829000000000001,0.193477,0.7165159999999999,-0.6702,2.852441,-1.1561219999999999,1.693425,-0.026102999999999998,-0.136987,0.561649
87,0.268748,-0.739876,0.015257,0.196103,0.674196,-0.71204,2.434164,-1.431642,1.4270049999999999,-0.154584,-0.134599,0.655826
88,0.250208,-0.692759,0.030361000000000003,0.190528,0.638663,-0.745524,1.941244,-1.376052,1.006885,-0.370567,-0.288275,0.616084
89,0.23380700000000001,-0.6580590000000001,0.042022000000000004,0.183302,0.611582,-0.769652,1.3536569999999999,-1.0769090000000001,0.767388,-0.413466,-0.366847,0.595916
90,0.2223,-0.636568,0.051072,0.177291,0.594439,-0.784352,0.723831,-0.6838609999999999,0.5242720000000001,-0.380386,-0.44075299999999995,0.6357010000000001
91,0.220156,-0.629394,0.058321000000000005,0.176536,0.588655,-0.788872,0.008695999999999999,-0.095363,0.22903400000000002,-0.295982,-0.548661,0.533302
92,0.22502199999999997,-0.637514,0.05915700000000001,0.1793,0.5952,-0.7833180000000001,-0.620204,0.30593400000000004,-0.21277600000000002,-0.174524,-0.5784,0.43616499999999997
93,0.22646100000000002,-0.656522,0.055422000000000006,0.17785399999999998,0.610366,-0.771893,-1.051087,0.162198,-0.39079,0.106402,-0.48823500000000003,0.378873
94,0.23459000000000002,-0.684454,0.0546,0.180089,0.63225,-0.753542,-1.554074,0.607857,-0.314758,0.320658,-0.306521,-0.188277
95,0.24869699999999997,-0.7222529999999999,0.056602,0.184684,0.661076,-0.727233,-2.02521,0.552582,-0.46859700000000004,0.413232,-0.30071,-0.248231
96,0.26607800000000004,-0.771547,0.05979500000000001,0.18849000000000002,0.697245,-0.691605,-2.467405,1.319277,-0.542103,0.312288,-0.196482,-0.492767
97,0.327654,-0.810148,0.08468200000000001,0.221861,0.72439,-0.652713,-2.440953,1.7703509999999998,0.9156270000000001,0.693422,1.8452819999999999,-0.24694499999999997
98,0.387123,-0.855261,0.124511,0.247664,0.754742,-0.607472,-2.796841,1.041068,0.318008,-0.725554,1.572665,-0.482951
99,0.364079,-0.896352,0.129866,0.222363,0.781054,-0.5835279999999999,-1.119359,-2.4563029999999997,-1.116439,-1.047497,0.534726,-0.34039200000000003
100,0.346831,-0.932284,0.127276,0.20259100000000002,0.802983,-0.560509,-2.035286,0.505509,-0.409855,-0.64685,-0.721242,-0.397499
101,0.374819,-0.970434,0.133527,0.206826,0.825131,-0.525716,-1.7843369999999998,1.046689,-0.632054,-0.818947,-0.5684020000000001,-0.028117000000000003
102,0.39626500000000003,-1.013635,0.13541199999999998,0.204094,0.848759,-0.487799,-2.11155,1.200788,-0.789429,-0.618889,-0.335377,0.29543200000000003
103,0.43121000000000004,-1.058768,0.13908,0.204781,0.8717530000000001,-0.445092,-2.11152,1.845578,-0.8639620000000001,-0.398018,0.617841,0.254434
104,0.47195600000000004,-1.106125,0.13816199999999998,0.20373,0.893969,-0.399134,-2.0887569999999998,2.109791,-1.155766,-0.073252,0.952741,0.240855
105,0.514857,-1.152121,0.13539500000000002,0.200186,0.9136280000000001,-0.35384,-1.9554639999999999,2.404117,-1.082574,0.069925,0.733604,0.315265
106,0.57781,-1.195933,0.14673599999999998,0.19998,0.930558,-0.306698,-2.013887,2.698446,-0.8440770000000001,0.059328,-0.005065999999999999,0.182293
107,0.657171,-1.236874,0.175001,0.20021,0.9447639999999999,-0.25948000000000004,-1.913341,2.539287,-0.822875,-0.082687,-0.06274500000000001,0.089085
108,0.734468,-1.277585,0.209734,0.193696,0.9573209999999999,-0.21450300000000003,-1.903441,2.009234,-0.9449719999999999,-0.076752,-0.042037,0.071879
109,0.806026,-1.318661,0.24651199999999998,0.17999300000000001,0.968382,-0.172716,-1.723438,1.696334,-1.171875,-0.044739,0.10962100000000001,0.15321500000000002
110,0.859152,-1.359194,0.269961,0.15903599999999998,0.9776959999999999,-0.137151,-1.523285,1.389693,-1.3847969999999998,-0.03161,0.11483399999999999,0.099233
111,0.9165610000000001,-1.399061,0.304162,0.13558499999999998,0.98529,-0.10398099999999999,-1.46985,1.053468,-1.26542,0.017675,0.051118000000000004,0.033318
112,0.9856159999999999,-1.433476,0.358948,0.11408299999999999,0.9905860000000001,-0.07559099999999999,-1.2869,0.578287,-1.140687,-0.124123,-0.14084000000000002,0.049697000000000005
113,1.085734,-1.4674690000000001,0.450934,0.09120299999999999,0.9946659999999999,-0.04807,-1.3838290000000002,0.353941,-1.16351,-0.079835,-0.206855,0.057423
114,1.281776,-1.497868,0.6419739999999999,0.069774,0.9973420000000001,-0.020747,-1.30905,0.239288,-1.061359,0.050892,-0.12293699999999999,0.044856
115,1.667458,-1.521324,1.023663,0.04911,0.998776,0.004762,-1.2363979999999999,0.302788,-1.020341,-0.00035800000000000003,-0.127194,0.090941
116,2.348143,-1.527428,1.694775,0.030808999999999996,0.9990600000000001,0.030317,-1.2870409999999999,0.62071,-0.8277540000000001,-0.001574,-0.155066,0.014452000000000001
117,2.847337,-1.512143,2.181565,0.016972,0.99828,0.05600499999999999,-1.219333,0.712272,-0.607344,0.064433,-0.084767,-0.13435899999999998
118,3.090307,-1.489588,2.409017,0.004155,0.996704,0.080939,-1.291525,0.8242459999999999,-0.5748770000000001,-0.054295,-0.059799,-0.123511
119,-3.067846,-1.4643979999999999,2.5222279999999997,-0.00782,0.994345,0.105852,-1.192754,0.5031869999999999,-0.5577529999999999,-0.023201,-0.141211,-0.05147
120,-2.988584,-1.4387940000000001,2.589818,-0.020053,0.9913,0.13003599999999998,-1.270633,0.726163,-0.573537,0.028797000000000003,-0.128858,-0.061569000000000006
121,-2.923304,-1.412057,2.6415029999999997,-0.034224,0.987427,0.15428499999999998,-1.203632,0.635555,-0.61675,0.080778,-0.10716300000000001,-0.089572
122,-2.879732,-1.387138,2.676516,-0.047269,0.983182,0.176368,-1.110994,0.404943,-0.568806,0.135496,-0.068784,-0.204673
123,-2.845242,-1.363074,2.700281,-0.060217999999999994,0.978503,0.197214,-1.088554,0.668977,-0.54976,0.105277,0.022763,-0.225671
124,-2.8097060000000003,-1.339741,2.720304,-0.074607,0.973425,0.216482,-0.9807899999999999,0.8807020000000001,-0.577052,0.11339500000000001,0.04484,-0.18549100000000002
125,-2.76491,-1.320817,2.7454560000000003,-0.090988,0.9689180000000001,0.230016,-0.6659619999999999,1.088603,-0.626394,0.161178,0.042083999999999996,-0.15862
126,-2.717236,-1.3058969999999999,2.770612,-0.107787,0.9651190000000001,0.23856799999999997,-0.520716,1.221918,-0.525137,0.149321,0.057571000000000004,-0.13128299999999998
127,-2.678615,-1.294694,2.781174,-0.12174000000000001,0.962125,0.243889,-0.381544,1.556076,-0.294926,0.144994,0.092639,-0.154091
128,-2.638054,-1.2889030000000001,2.7899540000000003,-0.134216,0.9605299999999999,0.243628,-0.072787,1.521541,-0.184834,0.448654,0.222377,-0.11133399999999999
129,-2.599145,-1.2891270000000001,2.803682,-0.14348,0.960593,0.238037,0.19098299999999999,1.145469,-0.139781,0.600633,0.26629,-0.096207
130,-2.5674240000000004,-1.294798,2.816822,-0.14799500000000002,0.9621540000000001,0.228789,0.433935,0.8538629999999999,0.11225299999999999,0.752076,0.38615900000000003,-0.187834
131,-2.559905,-1.309934,2.812716,-0.141693,0.966168,0.21547600000000003,0.720342,0.378512,0.7216130000000001,0.411301,0.569858,-0.323081
132,-2.584701,-1.341995,2.77999,-0.11986600000000001,0.9739389999999999,0.192517,1.479043,0.439992,1.471385,0.008126000000000001,0.535369,-0.444561
133,-2.622051,-1.397274,2.7307900000000003,-0.085703,0.9849829999999999,0.149842,2.491582,0.524812,2.0252779999999997,-0.172308,0.46470900000000004,-0.582521
134,-2.684675,-1.46996,2.656116,-0.044389,0.99492,0.090291,3.230927,0.693058,2.2000740000000003,-0.354903,0.26187,-0.40114299999999997
135,-3.127345,-1.555521,2.185524,-0.000213,0.999883,0.014941,4.07749,1.8646770000000001,2.3113080000000004,-0.7026220000000001,0.47196400000000005,-0.40584000000000003
136,0.545896,-1.4903440000000001,-0.464483,0.041694,0.996765,-0.068635,4.004691,1.5622120000000002,1.8240779999999999,-1.249488,0.6295470000000001,-0.079665
137,0.496116,-1.4207459999999998,-0.531529,0.071144,0.988764,-0.131439,2.829551,1.061764,1.1873280000000002,-1.4803540000000002,0.471167,0.759033
138,0.5228649999999999,-1.3649129999999998,-0.560411,0.102076,0.978881,-0.1771,2.4632419999999997,3.588822,1.1826,-0.57493,0.226213,0.085502
139,0.585141,-1.309688,-0.5631649999999999,0.142573,0.9661040000000001,-0.21519000000000002,2.310316,2.71743,1.580027,0.060017999999999995,0.283377,-0.151265
140,0.607759,-1.2490709999999998,-0.582585,0.180555,0.948691,-0.259571,2.828608,1.668554,1.292298,-0.21931199999999998,0.214837,0.351566
141,0.605675,-1.194193,-0.619436,0.209369,0.929919,-0.30233699999999997,2.4752680000000002,1.512465,0.9396530000000001,-0.136493,-0.014865,0.374267
142,0.59158,-1.147152,-0.65604,0.229246,0.9115969999999999,-0.34121799999999997,2.26932,0.719735,0.62731,-0.112044,-0.09545,0.394121
143,0.574461,-1.1055190000000001,-0.689419,0.24379499999999998,0.893697,-0.376646,2.061239,0.582493,0.496777,-0.074911,-0.247396,0.288984
144,0.559325,-1.0694,-0.717194,0.25503600000000004,0.876912,-0.4074,1.717566,0.44033,0.382396,-0.10579000000000001,-0.326848,0.31272
145,0.5498029999999999,-1.041593,-0.73583,0.263788,0.86321,-0.43044,1.244289,0.24299,0.325932,-0.194376,-0.47374399999999994,0.388036
146,0.541353,-1.022636,-0.74735,0.268527,0.853485,-0.44659899999999997,0.80567,0.036443,0.144739,-0.257785,-0.46438599999999997,0.48445600000000005
147,0.534381,-1.014022,-0.757646,0.269142,0.8489639999999999,-0.454771,0.313256,0.140336,-0.10132000000000001,-0.319404,-0.40089,0.451384
148,0.53368,-1.016784,-0.763142,0.26762800000000003,0.8504209999999999,-0.45293900000000004,-0.253126,0.21870799999999999,-0.294451,-0.24922600000000003,-0.5444060000000001,0.307981
149,0.53185,-1.031672,-0.768853,0.260349,0.858159,-0.44246599999999997,-0.75565,0.129081,-0.621518,-0.24753200000000003,-0.582615,0.23190999999999998
150,0.533507,-1.058848,-0.773167,0.249127,0.871792,-0.421792,-1.3454959999999998,0.409022,-0.85246,-0.235668,-0.7399560000000001,0.175973
151,0.54094,-1.09768,-0.777909,0.234636,0.8901530000000001,-0.390599,-1.685039,0.622892,-1.294145,-0.303606,-0.545991,-0.30530799999999997
152,0.5340739999999999,-1.1433209999999998,-0.80002,0.211033,0.910015,-0.35683400000000004,-1.7927830000000002,0.740831,-1.6561080000000001,0.028850999999999998,-0.11495599999999999,-0.56086
153,0.549524,-1.191677,-0.812678,0.19329200000000002,0.928991,-0.315605,-1.9930740000000002,1.9329599999999998,-1.238155,0.181937,0.234354,-0.74717
154,0.627278,-1.22748,-0.794104,0.19756500000000002,0.941643,-0.272521,-1.396348,3.388787,-0.32359099999999996,0.608251,0.951377,-1.063966
155,0.704856,-1.241415,-0.760886,0.20956799999999998,0.9462430000000001,-0.24636999999999998,-0.579592,1.509588,0.04665,0.459118,0.33812,-0.63835
156,0.747015,-1.246881,-0.737001,0.216248,0.947996,-0.23351999999999998,-0.49394499999999997,0.729092,0.15079700000000001,0.45954799999999996,0.370744,-0.393464
157,0.7789159999999999,-1.251593,-0.697475,0.22044499999999997,0.949486,-0.223322,-0.6290600000000001,-0.9678950000000001,0.268464,-0.15001099999999998,0.935585,0.489069
158,0.76615,-1.2591649999999999,-0.689766,0.212585,0.951835,-0.220931,-0.078086,-0.48177200000000003,-0.297672,-0.562866,0.111047,0.265853
159,0.786304,-1.246761,-0.6847,0.225334,0.947958,-0.22492600000000001,0.471113,1.130727,0.9047790000000001,-0.715309,-0.066778,-0.34987199999999996
160,0.856406,-1.24055,-0.6426569999999999,0.244979,0.9459629999999999,-0.212443,-0.9388569999999999,1.718019,0.449834,-0.9366899999999999,-0.794428,0.199244
161,0.975273,-1.261809,-0.559733,0.251734,0.952642,-0.170571,-1.8699419999999998,2.375513,-0.394999,-0.886149,-0.617422,0.554345
162,1.099537,-1.2950190000000001,-0.49123900000000004,0.2426,0.9622139999999999,-0.123617,-1.503554,3.0636360000000002,-1.232944,-0.787247,-0.29127,0.541632
163,1.181138,-1.330645,-0.45921899999999993,0.220002,0.971302,-0.09034500000000001,-0.888249,-0.617422,0.554345
162.138647,0.9842920000000001,0.10928299999999999,-0.309247,0.036677,0.00011399999999999999,-0.157313,0.31027899999999997,-0.215179
162,-2.244418,-1.3907049999999999,1.7195599999999998,-0.139986,0.983827,0.111732,-0.12077,0.6019479999999999,-0.065524,-0.253904,0.340956,-0.22090900000000002
163,-2.217072,-1.3877540000000002,1.7377509999999998,-0.145306,0.983294,0.10961099999999999,0.161455,0.25145100000000004,-0.304521,-0.312213,0.44634700000000005,-0.22013000000000002
164,-2.155341,-1.388046,1.8026830000000003,-0.151551,0.983348,0.100279,0.7260220000000001,-0.194689,-0.313893,-0.175796,0.443929,-0.092527
165,-2.047661,-1.393781,1.9138680000000001,-0.156437,0.984374,0.08082,1.106228,-0.01741,-0.22173400000000001,-0.26733,0.338624,-0.154474
166,-1.8942880000000002,-1.3965940000000001,2.0745139999999997,-0.164323,0.984865,0.055091999999999995,1.580488,-0.5234840000000001,-0.615151,-0.16104100000000002,0.136488,-0.247246
167,-1.6416169999999999,-1.384842,2.3506869999999997,-0.184412,0.9827600000000001,0.013082,2.799698,-1.021411,-1.2939319999999999,-0.11449200000000001,0.23286199999999999,-0.15273
168,-1.3172139999999999,-1.347191,2.68723,-0.21464899999999998,0.9751040000000001,-0.055629,3.9177839999999997,0.291698,-1.636045,-0.019237999999999998,0.24836100000000003,-0.17566400000000001
169,-1.053149,-1.288869,2.947104,-0.24175500000000003,0.960521,-0.137665,4.03121,0.530438,-1.231771,0.100977,0.36749699999999996,0.00824
170,-0.896885,-1.236788,3.115257,-0.256161,0.944736,-0.20458099999999999,3.260883,-0.746567,-0.363846,0.220654,0.490613,0.196463
171,-0.799413,-1.196397,-3.0319700000000003,-0.26219499999999996,0.9307270000000001,-0.254947,3.259621,-1.637326,0.216263,0.287769,0.778181,0.21650999999999998
172,-0.689204,-1.1417620000000002,-2.8884819999999998,-0.264538,0.9093680000000001,-0.32104099999999997,4.229455000000001,-0.78381,0.11725799999999999,0.051021,0.35995,0.015377000000000002
173,-0.605129,-1.0697139999999998,-2.774717,-0.273269,0.8770629999999999,-0.395073,4.433063,-1.204824,-0.267477,-0.161072,0.096036,0.02198
174,-0.5786180000000001,-0.993244,-2.698811,-0.298575,0.837801,-0.4571,4.1333400000000005,-2.28031,-0.650616,-0.41552100000000003,-0.37338499999999997,0.25914699999999996
175,-0.576995,-0.919175,-2.64424,-0.330837,0.7951010000000001,-0.5082899999999999,3.8389480000000002,-1.812602,-0.674636,-0.22978600000000002,-0.287487,0.215779
176,-0.5563819999999999,-0.8517629999999999,-2.599205,-0.347848,0.7524430000000001,-0.559312,3.409796,-0.109198,-0.576199,0.073663,-0.266023,0.231371
177,-0.527625,-0.796181,-2.566568,-0.352157,0.7146899999999999,-0.60432,2.751291,0.160142,-0.494618,0.32829200000000003,-0.24757300000000002,0.36039299999999996
178,-0.521604,-0.740308,-2.545626,-0.367854,0.674516,-0.640087,2.869267,-0.804902,-0.8867309999999999,0.223124,-0.257524,0.45745399999999997
179,-0.5310090000000001,-0.681268,-2.528999,-0.393361,0.629779,-0.669809,2.80134,-1.022807,-0.9467459999999999,0.11888599999999999,-0.34323400000000004,0.41198199999999996
180,-0.540763,-0.627128,-2.516387,-0.41683400000000004,0.586821,-0.694183,2.432309,-0.784931,-0.9731299999999999,0.11828,-0.462661,0.385284
181,-0.552451,-0.5793560000000001,-2.509647,-0.43914,0.5474859999999999,-0.712331,2.050607,-0.7568630000000001,-1.001469,0.176948,-0.41705299999999995,0.357426
182,-0.5640850000000001,-0.5397649999999999,-2.505518,-0.458632,0.513934,-0.724932,1.57559,-0.622812,-0.812679,0.196883,-0.283115,0.293216
183,-0.5716760000000001,-0.511787,-2.502482,-0.47171899999999994,0.48973599999999995,-0.7332390000000001,1.0750680000000001,-0.387788,-0.545148,0.0962,-0.274572,0.24222600000000002
184,-0.576808,-0.495476,-2.499605,-0.47976800000000003,0.47545,-0.7374069999999999,0.541668,-0.27332,-0.203985,-0.022063,-0.347581,0.163661
185,-0.578991,-0.49393000000000004,-2.49747,-0.481779,0.47408999999999996,-0.7369720000000001,-0.168457,-0.044374000000000004,0.166776,-0.081911,-0.37542600000000004,0.151355
186,-0.575236,-0.5091979999999999,-2.498764,-0.47501400000000005,0.48747700000000005,-0.7326159999999999,-0.947973,0.356547,0.481283,-0.197975,-0.287419,0.062099
187,-0.56748,-0.53825,-2.502447,-0.461509,0.512634,-0.7240270000000001,-1.4946,0.54166,0.749625,-0.180291,-0.097457,-0.176348
188,-0.558655,-0.5761539999999999,-2.5063400000000002,-0.44447700000000007,0.5448029999999999,-0.711076,-1.764557,0.47265,0.9251520000000001,-0.156566,-0.090076,-0.360259
189,-0.5602,-0.612781,-2.507212,-0.434676,0.575145,-0.6930109999999999,-1.3292760000000001,-0.47591000000000006,0.930476,-0.12260499999999999,-0.097713,-0.553098
190,-0.566946,-0.6462319999999999,-2.504294,-0.42876499999999995,0.602183,-0.67345,-1.643886,0.151066,1.054594,-0.278633,0.695318,-0.11368900000000001
191,-0.565006,-0.681167,-2.504114,-0.41593500000000005,0.6297,-0.6561060000000001,-1.1179270000000001,-0.450025,0.934056,0.22767199999999999,0.58992,0.16018
192,-0.5531010000000001,-0.7127439999999999,-2.489025,-0.397448,0.6539119999999999,-0.6437649999999999,-1.408069,0.8716510000000001,1.533881,0.383761,-0.21583200000000002,0.684048
193,-0.526991,-0.771097,-2.4848779999999997,-0.360678,0.696922,-0.619847,-2.637643,0.992059,1.526206,-0.2064,-0.505592,0.271031
194,-0.518514,-0.8233799999999999,-2.4869220000000003,-0.336875,0.733448,-0.5903970000000001,-2.306458,0.458796,1.129688,-0.083856,0.103497,0.196461
195,-0.516618,-0.873872,-2.5001830000000003,-0.317042,0.76682,-0.558095,-2.4508799999999997,0.613527,0.656327,-0.169683,0.6183420000000001,0.058552999999999994
196,-0.524438,-0.9215979999999999,-2.5276810000000003,-0.302713,0.796569,-0.523299,-2.475922,0.749816,0.428446,-0.12311400000000002,0.411058,0.158187
197,-0.5348310000000001,-0.968967,-2.5529490000000004,-0.288564,0.8243010000000001,-0.48708999999999997,-2.396636,0.30030300000000004,0.617583,-0.03802,-0.007909999999999999,0.0782
198,-0.551276,-1.01785,-2.580463,-0.275084,0.850981,-0.447391,-2.577115,0.48315600000000003,0.601133,-0.062318,-0.12148900000000001,0.031085
199,-0.571347,-1.070344,-2.622588,-0.25947,0.877366,-0.40361199999999997,-2.897522,0.957907,0.436985,-0.08794199999999999,-0.13205,-0.019346000000000002
200,-0.6010270000000001,-1.1250280000000001,-2.680388,-0.24381,0.90228,-0.355592,-3.036318,1.1576600000000001,0.420804,-0.072672,-0.091947,0.01909
201,-0.636831,-1.178031,-2.747493,-0.227598,0.9238540000000001,-0.307718,-2.872369,1.315818,0.42067899999999997,0.11012000000000001,-0.00016299999999999998,0.09342400000000001
202,-0.6815319999999999,-1.224027,-2.8230470000000003,-0.21410500000000002,0.940476,-0.263936,-2.534164,1.118359,0.22353699999999999,0.292123,-0.059326,0.056798
203,-0.7605649999999999,-1.2632510000000001,-2.916029,-0.20867199999999997,0.9530790000000001,-0.219302,-2.459981,0.035868000000000004,0.201941,0.173272,-0.15373199999999998,-0.014797999999999999
204,-0.8707590000000001,-1.2989540000000002,-3.026696,-0.205355,0.9632780000000001,-0.172981,-2.293672,-0.22890300000000002,0.203442,0.080492,-0.140631,-0.072243
205,-1.004317,-1.327596,3.120495,-0.203189,0.9705719999999999,-0.12923099999999998,-2.2398569999999998,0.014191,0.10416199999999999,-0.032651,-0.118949,-0.100826
206,-1.157332,-1.349909,2.956998,-0.200627,0.9757030000000001,-0.088026,-2.093487,0.5165649999999999,0.086381,-0.110499,-0.17011600000000002,-0.058687
207,-1.2932569999999999,-1.3649229999999999,2.7981580000000004,-0.19659200000000002,0.978883,-0.056008,-1.700532,1.163558,0.185504,-0.10246500000000001,-0.151551,-0.129478
208,-1.4253959999999999,-1.3775819999999999,2.647236,-0.18997999999999998,0.981392,-0.027819,-1.554265,0.4039,0.354142,0.025109,-0.258492,-0.25492600000000004
209,-1.5891309999999998,-1.389229,2.485194,-0.180532,0.983562,0.00331,-1.587128,-0.50135,0.590082,0.313741,-0.060771000000000006,-0.11146500000000001
210,-1.8072,-1.399684,2.272232,-0.165535,0.9853959999999999,0.039879000000000005,-1.884438,-0.20186099999999998,0.810879,0.305748,0.041017000000000005,-0.029686
211,-2.034243,-1.4011049999999998,2.035183,-0.151057,0.9856370000000001,0.075491,-1.809854,0.589925,0.674722,0.044351999999999996,0.181584,-0.058294000000000006
212,-2.210697,-1.394089,1.842643,-0.141002,0.9844280000000001,0.10496099999999998,-1.433801,0.555063,0.5300199999999999,-0.300068,0.030465,-0.27181500000000003
213,-2.3359490000000003,-1.382396,1.7131310000000002,-0.135081,0.9823049999999999,0.129719,-1.244227,-0.17151,0.113532,-0.405325,-0.10713699999999998,-0.23296
214,-2.409998,-1.36491,1.645329,-0.13657,0.97888,0.152117,-0.922709,-0.407826,-0.20865799999999998,-0.201229,0.008989,-0.102709
215,-2.433186,-1.3530959999999999,1.6253540000000002,-0.14052,0.976397,0.16401300000000002,-0.394675,0.017639,-0.23863,-0.049955,0.40058699999999997,-0.19900199999999998
216,-2.419869,-1.347177,1.632045,-0.146508,0.975101,0.166463,-0.086477,0.461854,-0.23811500000000002,-0.103538,0.415066,-0.33208200000000004
217,-2.399411,-1.3452389999999999,1.643155,-0.15116,0.97467,0.164824,0.09110499999999999,0.43737,-0.130021,-0.15191,0.36351100000000003,-0.27484000000000003
218,-2.368077,-1.346873,1.6707169999999998,-0.155136,0.9750340000000001,0.158867,0.385461,0.100024,-0.205513,0.053252999999999995,0.354526,-0.142144
219,-2.306444,-1.353378,1.730404,-0.15992,0.976458,0.14475,0.887706,0.295286,-0.1873,0.063026,0.41496099999999997,-0.005666
220,-2.2267330000000003,-1.364587,1.8043919999999998,-0.162253,0.978814,0.124873,0.945673,0.285962,-0.037332,-0.275079,0.24826700000000002,-0.054285
221,-2.130566,-1.37277,1.9060290000000002,-0.1667,0.980457,0.104459,1.235259,-0.444387,-0.395432,-0.269945,0.22590300000000002,-0.097852
222,-1.956016,-1.378199,2.0995220000000003,-0.177372,0.98151,0.07192,2.185234,-0.921449,-0.7310840000000001,-0.227902,0.276363,-0.102362
223,-1.6621259999999998,-1.375342,2.4150139999999998,-0.193393,0.98096,0.017712000000000002,3.329447,-0.519883,-0.912682,-0.14665,0.35320799999999997,-0.019816999999999998
224,-1.298748,-1.346863,2.778787,-0.213891,0.975032,-0.05966799999999999,4.128541,0.8919530000000001,-1.158873,-0.139045,0.246785,0.018286
225,-1.01837,-1.292018,3.050581,-0.234244,0.961392,-0.1444,4.099789,0.49974799999999997,-1.088069,-0.158548,0.26205700000000004,0.077612
226,-0.8633059999999999,-1.231352,-3.064814,-0.25304699999999997,0.94294,-0.21639899999999998,3.734761,-0.648595,-0.778295,-0.11696400000000001,0.319221,0.272918
227,-0.769727,-1.16996,-2.937621,-0.271545,0.9207350000000001,-0.280192,3.904182,-1.530632,-0.6616810000000001,0.088165,0.5144310000000001,0.11184200000000001
228,-0.6875979999999999,-1.096782,-2.8231479999999998,-0.289707,0.8897430000000001,-0.35273899999999997,4.551273,-0.641467,-0.604889,0.12655999999999998,0.35751,0.128404
229,-0.617171,-1.018146,-2.733407,-0.3038,0.851136,-0.4281,4.284907,-0.620065,-0.664461,-0.176516,-0.236787,0.122726
230,-0.59241,-0.9417030000000001,-2.67298,-0.328546,0.808561,-0.48814300000000005,4.058033,-1.4483219999999999,-0.8658110000000001,-0.18570599999999998,-0.23335100000000003,0.161483
231,-0.578786,-0.864007,-2.629584,-0.355224,0.760451,-0.543625,3.8440339999999997,-0.650803,-1.119359,-0.10913199999999999,-0.214644,0.21164000000000002
232,-0.562591,-0.79286,-2.601324,-0.37433099999999997,0.712363,-0.593644,3.304789,-0.24426199999999998,-1.086259,0.227343,-0.052237,0.297715
233,-0.5588390000000001,-0.728722,-2.5796330000000003,-0.395544,0.665916,-0.632533,3.108654,-0.6272909999999999,-1.033727,0.281332,-0.12653399999999998,0.417812
234,-0.56319,-0.66273,-2.560979,-0.42086999999999997,0.615271,-0.666564,3.185013,-0.940961,-1.246436,0.311556,-0.200827,0.482055
235,-0.575488,-0.597958,-2.5485279999999997,-0.44981000000000004,0.562956,-0.693361,2.839814,-0.911753,-1.324729,0.145901,-0.295348,0.424379
236,-0.5870989999999999,-0.540899,-2.541388,-0.474869,0.514907,-0.713701,2.4062959999999998,-0.725003,-1.297018,0.199753,-0.373488,0.43045200000000006
237,-0.59792,-0.490622,-2.5381099999999996,-0.496522,0.471175,-0.729013,2.018903,-0.47559300000000004,-1.261587,0.199753,-0.40665999999999997,0.404001
238,-0.603795,-0.44897700000000007,-2.5367490000000004,-0.5115,0.434044,-0.7416020000000001,1.5653139999999999,-0.275754,-1.0267979999999999,0.148752,-0.31733,0.260049
239,-0.6073069999999999,-0.42008199999999996,-2.536277,-0.521042,0.40783600000000003,-0.749789,0.973189,-0.138843,-0.6529590000000001,0.142807,-0.152846,0.26192
240,-0.608688,-0.405426,-2.536335,-0.525439,0.39441,-0.753892,0.363052,0.043864999999999994,-0.26114499999999996,0.101199,-0.22990500000000003,0.248231
241,-0.603698,-0.40451,-2.53708,-0.521875,0.393568,-0.7568020000000001,-0.170413,0.359756,0.058395,-0.019126,-0.438673,0.100003
242,-0.599194,-0.414814,-2.539234,-0.516147,0.40302,-0.7557560000000001,-0.674962,0.144301,0.296565,0.02399,-0.42668599999999995,0.095478
243,-0.602478,-0.436134,-2.5428990000000002,-0.5136390000000001,0.422439,-0.746807,-1.128919,-0.183289,0.56087,0.030698000000000003,-0.40121399999999996,0.031871
244,-0.604577,-0.46479,-2.547778,-0.5081140000000001,0.44823500000000005,-0.735462,-1.357053,0.195273,0.6613399999999999,-0.02541,-0.300576,-0.398785
245,-0.60092,-0.488058,-2.548998,-0.499388,0.46891099999999997,-0.728514,-0.601075,-0.027377999999999996,0.540856,-0.694674,0.378745,-0.8599709999999999
246,-0.6169600000000001,-0.480663,-2.539917,-0.513001,0.46236700000000003,-0.723219,1.060419,-1.556002,-0.111082,-1.033615,0.681706,-0.958361
247,-0.635618,-0.49177600000000005,-2.537867,-0.523321,0.472192,-0.7093430000000001,-1.4532909999999999,-0.057949,0.932321,0.23642600000000003,-0.27700199999999997,-0.12328299999999999
248,-0.619613,-0.5293140000000001,-2.535262,-0.50125,0.504942,-0.702696,-1.6066479999999999,0.36606,1.057825,-0.220277,0.013933000000000001,0.0062840000000000005
249,-0.6260100000000001,-0.5706600000000001,-2.538855,-0.49307399999999996,0.540187,-0.681963,-1.740099,-0.22845300000000002,1.195455,-0.14543,0.21033200000000002,0.095019
250,-0.614711,-0.615779,-2.5396810000000003,-0.470792,0.577595,-0.666887,-1.994371,0.959895,1.2744090000000001,-0.358035,0.037288999999999996,0.271013
251,-0.601474,-0.663254,-2.544333,-0.445892,0.615684,-0.649702,-2.029186,0.704773,1.168739,-0.185838,-0.064598,0.057737000000000004
252,-0.586229,-0.7139989999999999,-2.549903,-0.41809799999999997,0.6548609999999999,-0.629563,-2.420473,1.114742,1.281917,-0.064355,0.037049,0.09842000000000001
253,-0.569982,-0.7728010000000001,-2.5640389999999997,-0.386342,0.6981430000000001,-0.602772,-2.899562,1.37184,1.073142,-0.08498700000000001,0.048530000000000004,0.094669
254,-0.5618489999999999,-0.833556,-2.588288,-0.35814,0.740326,-0.5689029999999999,-3.075412,1.212405,0.870224,0.071397,0.21295100000000003,0.051248
255,-0.561463,-0.896416,-2.616892,-0.332453,0.781094,-0.52855,-3.189439,1.04751,0.913436,0.08376499999999999,0.187137,0.011521
256,-0.565963,-0.9619129999999999,-2.647406,-0.306696,0.8202870000000001,-0.482767,-3.3139089999999998,0.992135,1.016255,0.038721,0.067881,-0.042044
257,-0.5747479999999999,-1.031207,-2.682777,-0.279303,0.8579200000000001,-0.43123100000000003,-3.510246,1.0702450000000001,1.100242,-0.055185000000000005,-0.038431,-0.06336699999999999
258,-0.587901,-1.106555,-2.722526,-0.248325,0.8941610000000001,-0.372569,-3.751382,1.109369,1.381586,-0.07607699999999999,-0.07812100000000001,-0.035085000000000005
259,-0.603092,-1.1849809999999998,-2.766253,-0.21344000000000002,0.926492,-0.309924,-3.733776,1.278486,1.431699,-0.046646,-0.223489,0.086123
260,-0.638179,-1.255967,-2.8325299999999998,-0.184468,0.9508489999999999,-0.248703,-3.472438,1.291109,0.979514,0.047612,-0.294325,0.10751400000000001
261,-0.7220260000000001,-1.319669,-2.939695,-0.164227,0.968633,-0.18648199999999998,-3.3563970000000003,0.805714,0.7865300000000001,0.111248,-0.22548400000000002,0.20284000000000002
262,-0.8517620000000001,-1.374747,-3.086721,-0.146565,0.980844,-0.128297,-2.842443,0.685847,0.734765,0.024113,-0.16709300000000002,0.158906
263,-1.019513,-1.4095600000000001,3.0116810000000003,-0.136744,0.98703,-0.08408,-2.077172,0.709775,0.215583,-0.155309,-0.273147,-0.004711
264,-1.2230159999999999,-1.426747,2.792417,-0.134943,0.989643,-0.048919,-1.810991,0.601097,-0.00995,-0.194677,-0.37749099999999997,-0.158021
265,-1.4577309999999999,-1.433945,2.547483,-0.135536,0.99065,-0.015390000000000001,-1.7013220000000002,0.295059,-0.029088,-0.160164,-0.327183,-0.18590399999999999
266,-1.6946860000000001,-1.4350049999999999,2.300777,-0.13431700000000002,0.9907950000000001,0.016725999999999998,-1.66503,0.460466,0.133324,0.11130699999999999,-0.11494000000000001,-0.046557
267,-1.9197330000000001,-1.432372,2.058779,-0.12964900000000001,0.9904350000000001,0.047169,-1.6064370000000001,0.8653799999999999,0.321221,0.179545,-0.066393,-0.047001999999999995
268,-2.105379,-1.425681,1.853314,-0.12441400000000001,0.989489,0.073664,-1.3524610000000001,0.85606,0.30057399999999995,0.17193,-0.138568,-0.09525499999999999
269,-2.250216,-1.415143,1.691947,-0.120584,0.9879110000000001,0.09739600000000001,-1.281787,0.623796,0.247955,0.029581,-0.19758199999999998,-0.200377
270,-2.381267,-1.40135,1.549877,-0.116203,0.985678,0.122181,-1.33605,0.412025,0.240369,-0.041969,-0.188712,-0.23501999999999998
271,-2.484334,-1.382007,1.434411,-0.114646,0.982232,0.148558,-1.4539469999999999,0.637729,0.110002,0.000647,-0.104699,-0.151335
272,-2.5654619999999997,-1.357172,1.336978,-0.11548699999999999,0.977269,0.177768,-1.6261649999999999,0.718453,0.052079999999999994,-0.045005,0.024364,-0.153628
273,-2.62596,-1.329707,1.263093,-0.11772300000000001,0.9710780000000001,0.20770500000000003,-1.562849,0.486313,-0.025161000000000003,-0.13581700000000002,0.074973,-0.252337
274,-2.663045,-1.305695,1.216636,-0.120646,0.965066,0.232562,-1.1451280000000001,0.3189,-0.079713,0.019831,-0.059426,-0.45643900000000004
275,-2.678198,-1.291319,1.194143,-0.123298,0.9612,0.24675100000000003,-0.57726,0.44343999999999995,-0.015016999999999999,0.2172,0.130323,-0.37903000000000003
276,-2.6776590000000002,-1.286109,1.1750399999999999,-0.12567,0.959749,0.25116,-0.22364499999999998,1.26894,0.23315500000000003,0.371489,0.331755,-0.260468
277,-2.676062,-1.288474,1.1465239999999999,-0.125051,0.960411,0.24892899999999998,0.020355,1.41635,0.45365500000000003,0.292486,0.402428,-0.239392
278,-2.668371,-1.2965440000000001,1.132729,-0.123425,0.962628,0.24105300000000002,0.395714,0.737117,0.291573,0.03587,0.327991,-0.377467
279,-2.658722,-1.307952,1.132644,-0.12063800000000001,0.9656549999999999,0.230109,0.581576,0.52564,0.268574,-0.302854,0.20504499999999998,-0.50138
280,-2.623727,-1.324716,1.148715,-0.120584,0.969875,0.21165100000000003,1.049175,1.213611,0.179091,-0.201575,0.158879,-0.192761
281,-2.532986,-1.3528069999999999,1.215332,-0.12363699999999998,0.976334,0.177424,1.9305009999999998,1.3081209999999999,0.022756000000000002,-0.177861,0.170715,-0.09614
282,-2.33333,-1.388026,1.390349,-0.131413,0.983344,0.12553699999999998,2.776973,1.514365,-0.339064,-0.25811300000000004,0.023873,-0.021243
283,-1.9433049999999998,-1.40752,1.747591,-0.15138900000000002,0.9867,0.05915499999999999,3.230527,2.216755,-1.09096,-0.6454409999999999,0.564966,0.163211
284,-1.477741,-1.3928479999999999,2.163807,-0.176232,0.984209,-0.016447,3.449506,3.07627,-1.240083,-0.652137,0.602705,0.15524100000000002
285,-1.135459,-1.352651,2.453363,-0.196224,0.976301,-0.091263,3.043145,2.565654,-1.067079,-0.576954,0.547671,0.063965
286,-0.9471229999999999,-1.313464,2.6100209999999997,-0.20658200000000002,0.9670719999999999,-0.14862899999999998,2.356764,1.326033,-0.562879,-0.13776300000000002,0.362975,0.21926199999999998
287,-0.8276709999999999,-1.279139,2.723814,-0.21172600000000003,0.9577690000000001,-0.19454200000000002,2.3457369999999997,0.088215,-0.295383,-0.061818,0.298213,0.35530900000000004
288,-0.739858,-1.23465,2.828048,-0.22237600000000002,0.944033,-0.243612,2.9604470000000003,-1.008276,-0.480896,0.022288,0.139738,0.356863
289,-0.672353,-1.1789690000000002,2.928435,-0.237841,0.924213,-0.298761,3.3865529999999997,-1.347626,-0.435824,0.072756,-0.032169,0.225977
290,-0.624562,-1.12208,3.006856,-0.253664,0.901005,-0.35191100000000003,3.051044,-1.022463,-0.474904,0.012346,-0.205814,0.18928299999999998
291,-0.59647,-1.071697,3.052195,-0.268859,0.878014,-0.395983,2.424129,-0.412288,-0.673413,-0.041092000000000004,-0.391945,0.23712399999999997
292,-0.586291,-1.02882,3.072188,-0.285394,0.856691,-0.42968199999999995,1.843547,-0.382968,-0.8420120000000001,-0.146994,-0.392458,0.265681
293,-0.593119,-0.9937459999999999,3.075366,-0.30493600000000004,0.838076,-0.45237200000000005,1.2981790000000002,-0.515989,-0.93645,-0.192501,-0.365282,0.299051
294,-0.610577,-0.968967,3.066398,-0.32459499999999997,0.8243010000000001,-0.463855,0.604498,-0.486175,-0.8644209999999999,-0.10712100000000001,-0.34880700000000003,0.31749299999999997
295,-0.6305189999999999,-0.9572370000000001,3.0469720000000002,-0.339458,0.817604,-0.46506800000000004,-0.11919500000000001,0.021913,-0.7579640000000001,-0.00951,-0.356209,0.26981700000000003
296,-0.647619,-0.958227,3.0167740000000003,-0.34687199999999996,0.818174,-0.45855,-0.798122,0.573308,-0.597839,0.043787,-0.35238400000000003,0.20969400000000002
297,-0.662856,-0.9704079999999999,2.98068,-0.347659,0.825116,-0.44532299999999997,-1.283828,0.765733,-0.346173,0.06319,-0.333081,0.107173
298,-0.677589,-0.992331,2.941516,-0.342758,0.837303,-0.42595500000000003,-1.669138,1.002469,-0.07356599999999999,0.051636,-0.289588,0.048361
299,-0.685819,-1.02141,2.901319,-0.330687,0.8528450000000001,-0.4041,-1.8590939999999998,1.4645110000000001,0.16272799999999998,-0.009004,-0.378205,-0.061232
300,-0.690317,-1.05505,2.859211,-0.31404699999999997,0.869925,-0.380263,-2.094866,1.585232,0.280567,-0.046686,-0.435004,-0.10673699999999998
301,-0.707249,-1.097118,2.806387,-0.296385,0.8898969999999999,-0.346749,-2.610743,1.426413,0.48440200000000005,-0.08064400000000001,-0.444615,-0.126961
302,-0.7333609999999999,-1.149481,2.747564,-0.273742,0.912552,-0.303824,-2.8708720000000003,1.250627,0.979534,-0.073884,-0.175278,-0.33834200000000003
303,-0.763938,-1.2072040000000002,2.696705,-0.24601199999999998,0.934625,-0.256804,-2.640124,0.468679,1.320774,0.12116400000000001,0.431799,-0.600603
304,-0.785971,-1.247793,2.667694,-0.22457,0.9482860000000001,-0.224313,-0.973671,0.48493,0.8741260000000001,0.24799200000000002,1.020937,-0.540427
305,-0.700368,-1.238723,2.7191520000000002,-0.21010399999999999,0.945368,-0.24925799999999998,1.8478139999999998,2.409659,-0.182195,-0.281015,0.854223,-0.8098390000000001
306,-0.6412760000000001,-1.1994850000000001,2.759696,-0.217052,0.931852,-0.290748,1.6664240000000001,-0.227464,-0.6821470000000001,-0.7039529999999999,-0.43107399999999996,-0.601418
307,-0.649173,-1.177665,2.788373,-0.23158,0.9237139999999999,-0.305152,0.985685,-2.144375,0.026989999999999997,-0.6436029999999999,-1.006936,-0.208352
308,-0.677318,-1.179155,2.7955959999999997,-0.239213,0.924284,-0.297442,-0.7908310000000001,-1.221956,0.262295,-0.037001,-0.586241,0.302431
309,-0.725517,-1.214744,2.7294490000000002,-0.231283,0.9372799999999999,-0.260784,-2.676772,1.771247,0.088257,-0.12304100000000001,0.658347,0.7916979999999999
310,-0.7707579999999999,-1.246999,2.625117,-0.22165500000000002,0.948034,-0.228242,-1.8098459999999998,2.785741,-0.21784,-0.664469,0.9662569999999999,0.70398
311,-0.766217,-1.243175,2.613458,-0.223129,0.94681,-0.231857,1.0606870000000002,-0.832651,-0.39611399999999997,-0.4702,-0.032824,-0.006439
312,-0.776562,-1.234785,2.61232,-0.231075,0.944077,-0.235195,-1.004875,0.862927,-0.11895399999999999,0.260525,-0.616715,0.629742
313,-0.8060430000000001,-1.276118,2.521281,-0.20955500000000002,0.956895,-0.201077,-2.732183,3.3317449999999997,0.689455,0.06651900000000001,0.093062,0.21584699999999998
314,-0.844196,-1.3160379999999998,2.438873,-0.188354,0.967724,-0.16741099999999998,-1.8701459999999999,1.4314790000000002,0.694706,-0.019196,0.341846,0.12209300000000001
315,-0.881036,-1.357731,2.354416,-0.163105,0.9773870000000001,-0.134551,-2.343556,2.944875,1.1947290000000002,0.083927,0.170897,0.195128
316,-0.955227,-1.4103649999999999,2.207827,-0.130404,0.987159,-0.092227,-2.719047,3.6705660000000004,1.194381,-0.089994,-0.14661300000000002,0.251269
317,-1.136377,-1.4513129999999999,1.9555930000000001,-0.108099,0.99287,-0.050156,-2.454686,3.099686,0.672462,-0.363412,-0.236996,0.169739
318,-1.49368,-1.4732129999999999,1.54785,-0.0971,0.995243,-0.007503,-2.320172,2.11289,0.377701,-0.33115300000000003,-0.14390899999999998,0.143077
319,-1.8737439999999999,-1.4740799999999998,1.119181,-0.092127,0.9953270000000001,0.028796,-1.916251,2.604143,0.253842,0.06388300000000001,0.081486,0.113324
320,-2.166937,-1.463587,0.76127,-0.088513,0.994259,0.060055,-1.8266759999999997,3.4161940000000004,0.36452199999999996,0.148083,0.10207000000000001,0.062046000000000004
321,-2.365211,-1.4480950000000001,0.494705,-0.085736,0.992482,0.087296,-1.51747,3.1625389999999998,0.39264499999999997,0.18978599999999998,0.12356199999999999,0.017776
322,-2.4807099999999997,-1.4335309999999999,0.322654,-0.083972,0.9905940000000001,0.108,-1.178721,2.5107209999999998,0.332821,0.201068,0.050422,0.000643
323,-2.568818,-1.418241,0.189278,-0.082345,0.9883860000000001,0.12768800000000002,-1.1937950000000002,2.031295,0.358967,0.154336,0.04912,-0.040118
324,-2.6464950000000003,-1.402046,0.07404,-0.07978500000000001,0.9857950000000001,0.147763,-1.127203,1.678364,0.382317,0.155225,0.027648000000000002,-0.08541599999999999
325,-2.70329,-1.3860219999999999,-0.014627000000000001,-0.07796499999999999,0.982978,0.16633900000000001,-1.0329,1.4641950000000001,0.312748,0.042732,-0.05248200000000001,-0.163074
326,-2.7387740000000003,-1.370292,-0.079876,-0.078067,0.979966,0.183203,-0.929155,1.421624,0.213114,0.043352999999999996,-0.109605,-0.173056
327,-2.7505990000000002,-1.35592,-0.120404,-0.081255,0.9770030000000001,0.19711700000000001,-0.7623989999999999,1.332207,0.052024,0.059664,-0.101423,-0.181843
328,-2.751677,-1.342501,-0.145808,-0.08601900000000001,0.9740540000000001,0.209315,-0.7246199999999999,1.1224969999999999,-0.017946,0.00324,-0.083169,-0.153895
329,-2.751415,-1.32771,-0.16850199999999999,-0.091545,0.9706,0.222595,-0.829995,1.148548,-0.047557,-0.038582,-0.11374200000000001,-0.135971
330,-2.752847,-1.30971,-0.19220299999999998,-0.097834,0.96611,0.238857,-1.018525,0.9511799999999999,-0.077463,-0.062597,-0.131302,-0.15276700000000001
331,-2.764696,-1.289736,-0.216766,-0.102079,0.9607620000000001,0.257894,-1.031873,0.373771,-0.05865700000000001,0.033811,0.019905000000000003,-0.31947800000000004
332,-2.776068,-1.27274,-0.236798,-0.10496199999999999,0.955909,0.274251,-0.808343,0.544308,-0.009244,0.096799,0.091515,-0.373173
333,-2.778595,-1.260167,-0.260015,-0.108528,0.952141,0.28572800000000004,-0.659982,1.224795,0.18426800000000002,0.106498,0.171729,-0.436775
334,-2.779719,-1.25263,-0.291205,-0.11074400000000001,0.9498110000000001,0.292554,-0.422659,1.518292,0.374625,0.095898,0.2634,-0.256299
335,-2.774314,-1.249162,-0.318332,-0.113507,0.9487200000000001,0.295025,-0.261184,1.515943,0.28923000000000004,-0.126545,0.286281,-0.282315
336,-2.7618150000000004,-1.245944,-0.331359,-0.118316,0.9476979999999999,0.296417,-0.22461599999999998,1.113006,0.05712999999999999,-0.235154,0.22999099999999997,-0.396652
337,-2.741089,-1.2427,-0.33763899999999997,-0.125632,0.946658,0.296732,-0.157553,1.5230290000000002,0.026094,-0.250924,0.150877,-0.429071
338,-2.7050919999999996,-1.2437209999999999,-0.338012,-0.135821,0.9469860000000001,0.291141,0.201855,1.9564549999999998,0.016299,-0.051786,0.289601,-0.25655
339,-2.652102,-1.251961,-0.322696,-0.147377,0.949601,0.276643,0.649726,1.8273810000000001,-0.061591999999999994,0.062035,0.289687,-0.2063
340,-2.582411,-1.268197,-0.284867,-0.158082,0.954565,0.252604,1.180415,1.631881,-0.11638699999999999,0.024491,0.203302,-0.12945
341,-2.484362,-1.291749,-0.21599200000000002,-0.168266,0.961318,0.21805300000000002,1.7831009999999998,1.5808870000000002,-0.140954,0.009682,0.046494,-0.023030000000000002
342,-2.332733,-1.322014,-0.09011,-0.178134,0.9692129999999999,0.169965,2.442446,1.456589,-0.264376,0.010074,0.114771,0.1234
343,-2.1057240000000004,-1.34764,0.111627,-0.190381,0.9752040000000001,0.112812,2.722579,1.588676,-0.505075,-0.22921999999999998,0.248704,0.125409
344,-1.804611,-1.3560219999999998,0.383801,-0.207315,0.977024,0.049375999999999996,3.00395,1.918148,-0.823998,-0.34926399999999996,0.311794,-0.02806
345,-1.486111,-1.343918,0.664816,-0.22411999999999999,0.9743729999999999,-0.019025,2.918288,2.357206,-0.790976,-0.29325999999999997,0.25096799999999997,-0.027208999999999997
346,-1.2546620000000002,-1.3213139999999999,0.858717,-0.234658,0.96904,-0.076758,2.144673,1.833853,-0.577792,-0.21457600000000002,0.20462,0.053885
347,-1.121301,-1.296433,0.976826,-0.24401399999999998,0.962598,-0.117721,1.795278,0.35091100000000003,-0.521716,-0.10321500000000002,0.279544,0.35234
348,-1.037313,-1.268932,1.079849,-0.255983,0.954784,-0.15118499999999999,2.136518,-1.125623,-0.5356,-0.049970999999999995,0.24521300000000001,0.577577
349,-0.9446469999999999,-1.227917,1.199599,-0.272416,0.9417909999999999,-0.19702,3.010253,-0.914594,-0.786141,0.11096199999999999,0.141965,0.370757
350,-0.858975,-1.174304,1.306085,-0.292405,0.9224209999999999,-0.252258,3.158681,-0.588422,-0.963915,0.126924,-0.052136,0.207077
351,-0.8017569999999999,-1.119765,1.377958,-0.313221,0.899998,-0.303137,2.756066,-0.26717399999999997,-1.031232,0.06238200000000001,-0.182896,0.113455
352,-0.767074,-1.071777,1.420208,-0.332136,0.8780530000000001,-0.344538,2.152543,-0.163983,-1.00567,0.05569299999999999,-0.247117,0.12945
353,-0.755146,-1.030767,1.441282,-0.352401,0.8576940000000001,-0.374395,1.6897959999999999,-0.37846,-1.048152,0.03717,-0.19459300000000002,0.227071
354,-0.755969,-0.996347,1.449759,-0.372749,0.839491,-0.39536,1.211324,-0.41332399999999997,-0.9724010000000001,0.045432,-0.19212200000000001,0.22880999999999999
355,-0.764346,-0.971852,1.448602,-0.390164,0.825931,-0.406948,0.670247,-0.288515,-0.812902,0.100995,-0.246662,0.21297800000000003
356,-0.772597,-0.957232,1.4386709999999998,-0.401895,0.817601,-0.41231899999999994,0.11462,0.178224,-0.6347149999999999,0.152307,-0.278584,0.164287
357,-0.776353,-0.9536309999999999,1.4223379999999999,-0.405501,0.8155220000000001,-0.41290299999999996,-0.374207,0.637994,-0.370595,0.165251,-0.289903,0.11676099999999999
358,-0.778145,-0.960053,1.401462,-0.40255599999999997,0.8192219999999999,-0.408438,-0.816396,0.792932,-0.10575899999999999,0.132216,-0.348275,0.09360299999999999
359,-0.785537,-0.9755780000000001,1.374971,-0.396521,0.828026,-0.396411,-1.215635,0.666908,0.053984000000000004,0.174597,-0.304588,0.068102
360,-0.799188,-0.9990459999999999,1.343358,-0.387857,0.8409549999999999,-0.377304,-1.5948950000000002,0.605275,0.34410599999999997,0.18757000000000001,-0.327115,0.025162
361,-0.819873,-1.032489,1.305783,-0.3748,0.8585780000000001,-0.34980900000000004,-2.0476360000000002,0.572666,0.63261,0.19113,-0.374294,-0.063795
362,-0.846103,-1.077016,1.2598530000000001,-0.354851,0.880548,-0.314187,-2.486281,0.736494,1.068375,0.151879,-0.252587,-0.27558
363,-0.8743860000000001,-1.130695,1.213559,-0.326827,0.904709,-0.273283,-2.485832,0.530324,1.476704,0.222563,0.105255,-0.538408
364,-0.9003700000000001,-1.176485,1.18044,-0.301018,0.9232610000000001,-0.238691,-1.453916,0.047434,1.184397,0.231804,0.703814,-0.623369
365,-0.864583,-1.187042,1.2122389999999998,-0.284853,0.927265,-0.24297,1.155985,0.626943,0.5214270000000001,-0.31385599999999997,0.80537,-0.71719
366,-0.788974,-1.160146,1.285748,-0.28328600000000004,0.916861,-0.281267,2.048266,-0.06866799999999999,-0.254456,-0.383492,-0.429679,-0.6770609999999999
367,-0.7749699999999999,-1.136476,1.3346790000000002,-0.294425,0.907156,-0.30063,1.178567,-2.3850279999999997,0.078927,0.017386000000000002,-0.817419,-0.38539
368,-0.807503,-1.137729,1.35805,-0.303225,0.907683,-0.290108,-0.347148,-2.595905,0.5898329999999999,0.262667,-0.640624,-0.182045
369,-0.860503,-1.171382,1.328473,-0.294833,0.9212889999999999,-0.25356799999999996,-2.219048,-0.300194,0.869713,0.213351,0.366797,0.5570039999999999
370,-0.926326,-1.209195,1.233141,-0.282808,0.9353319999999999,-0.212534,-2.5127479999999998,1.881621,0.02738,-0.568892,1.048433,0.5392399999999999
371,-0.964949,-1.227211,1.1465239999999999,-0.276905,0.9415530000000001,-0.191828,-1.1198110000000001,1.9378380000000002,-0.053761,-0.828701,0.6719109999999999,0.35196900000000003
372,-0.953032,-1.226624,1.1470989999999999,-0.27505100000000005,0.9413549999999999,-0.195434,0.544556,-0.18576600000000001,-0.037278,-0.516301,0.13176500000000002,0.225845
373,-0.935372,-1.218064,1.16791,-0.278031,0.9384319999999999,-0.20503600000000002,0.20638600000000001,0.397602,-0.176052,0.07144199999999999,-0.665239,0.32116999999999996
374,-0.962068,-1.232682,1.101348,-0.272121,0.9433819999999999,-0.189676,-2.3210610000000003,2.523282,0.036442,-0.06602899999999999,-0.34474899999999997,0.423868
375,-1.067577,-1.2662309999999999,0.931808,-0.262698,0.9539770000000001,-0.14461300000000002,-3.350197,2.7637169999999998,-0.05757999999999999,-0.111951,-0.152891,0.33626300000000003
376,-1.2028219999999998,-1.292075,0.738807,-0.256702,0.961408,-0.098968,-2.780375,2.241205,0.11264400000000001,0.14464200000000002,0.46943900000000005,0.10575799999999999
377,-1.311105,-1.313779,0.58955,-0.245666,0.967152,-0.06527100000000001,-1.891737,1.536208,0.619682,0.324691,0.592494,0.18204700000000001
378,-1.3812440000000001,-1.33734,0.481857,-0.22718899999999997,0.972873,-0.043588,-1.367207,2.049586,0.984816,0.341233,0.359815,0.231393
379,-1.431468,-1.3616270000000001,0.37730199999999997,-0.205625,0.9782040000000001,-0.028836,-1.3424909999999999,2.760205,0.943485,0.023923,-0.18041300000000002,0.087491
380,-1.506232,-1.379153,0.253818,-0.190064,0.981693,-0.012288,-1.2341010000000001,1.865234,0.618513,-0.03273,-0.233356,-0.018122
381,-1.581167,-1.38671,0.155111,-0.183026,0.9831040000000001,0.001898,-0.730069,0.862634,0.22594,-0.036411,-0.11420699999999999,-0.018668
382,-1.620519,-1.388883,0.091491,-0.180675,0.983499,0.008990999999999999,-0.54452,1.417549,0.088724,0.119273,0.075705,0.011914
383,-1.645515,-1.389807,0.031354,-0.179488,0.983666,0.013436000000000002,-0.5267149999999999,1.8222759999999998,0.09260299999999999,0.11354000000000002,0.096473,0.054969000000000004
384,-1.668838,-1.392474,-0.028765,-0.176514,0.984143,0.017361,-0.536424,1.69182,0.22409400000000002,0.11370899999999999,0.125461,0.064288
385,-1.696823,-1.396662,-0.088408,-0.17187,0.984877,0.021776,-0.46511899999999995,1.46553,0.275088,0.13048800000000002,0.086733,0.124099
386,-1.730668,-1.4014739999999999,-0.14882,-0.166354,0.985699,0.026824,-0.49021499999999996,1.16072,0.331919,0.125445,0.042743,0.031419
387,-1.766289,-1.4064219999999998,-0.205602,-0.160505,0.9865209999999999,0.031784,-0.350051,0.98988,0.309616,0.104566,0.011755,-0.022125
388,-1.783177,-1.410831,-0.244162,-0.155692,0.987233,0.033572000000000005,-0.217844,1.1367129999999999,0.238781,0.057638999999999996,-0.041753,-0.097354
389,-1.781484,-1.413126,-0.269583,-0.153533,0.9875959999999999,0.032835,-0.16458299999999998,1.459842,0.10521099999999999,0.016326,-0.046144,-0.079496
390,-1.7782349999999998,-1.413384,-0.297172,-0.153389,0.9876360000000001,0.032283,-0.240975,1.484888,0.035211,0.033516000000000004,-0.071285,-0.047344
391,-1.788973,-1.412706,-0.333384,-0.153687,0.9875299999999999,0.034073,-0.30345500000000003,1.105901,0.026713999999999998,0.088929,-0.124645,-0.06613200000000001
392,-1.810875,-1.411629,-0.375343,-0.15393900000000002,0.98736,0.037683999999999995,-0.355244,0.9644510000000001,0.013715,0.11235899999999999,-0.080148,-0.081599
393,-1.8372490000000001,-1.4092870000000002,-0.42234399999999994,-0.155121,0.986986,0.042339,-0.419016,0.962766,-0.042276,0.082001,-0.013841,-0.06718099999999999
394,-1.8740970000000001,-1.405119,-0.47359399999999996,-0.157382,0.9863069999999999,0.049254,-0.46985600000000005,0.506199,-0.107207,0.022723,-0.116449,-0.06454299999999999
395,-1.9138950000000001,-1.3997950000000001,-0.521137,-0.16023900000000002,0.9854149999999999,0.057241999999999994,-0.450103,0.366676,-0.13146,0.012487999999999999,-0.16861199999999998,-0.11614100000000001
396,-1.94885,-1.3936790000000001,-0.566318,-0.163741,0.9843559999999999,0.06503099999999999,-0.497172,0.552294,-0.155527,0.048293,-0.089763,-0.13606
397,-1.9816610000000001,-1.3865299999999998,-0.611129,-0.167966,0.9830709999999999,0.073176,-0.49823900000000004,0.519406,-0.188607,0.11215,0.0029059999999999997,-0.163218
398,-2.00881,-1.378425,-0.6477510000000001,-0.173129,0.981554,0.081086,-0.483433,0.429054,-0.250345,0.11632,0.041838,-0.116105
399,-2.035961,-1.3689120000000001,-0.682869,-0.179202,0.97969,0.089941,-0.534179,0.26742,-0.27826599999999996,0.089449,0.035935,-0.10005700000000001
400,-2.0072360000000002,-1.367246,-0.660043,-0.18319000000000002,0.979355,0.08544700000000001,-0.529267,0.174719,-0.277045,0.12484,0.10540699999999999,-0.106397
401,-2.0143459999999997,-1.3637219999999999,-0.672511,-0.185694,0.9786370000000001,0.088228,-0.6208060000000001,0.23146,-0.26814299999999996,0.055734000000000006,0.156495,-0.082383
402,-2.055516,-1.352325,-0.720544,-0.191762,0.9762299999999999,0.10098700000000001,-0.751632,0.294871,-0.294775,-0.000758,0.254697,-0.084522
403,-2.098375,-1.339283,-0.7693439999999999,-0.198244,0.9733200000000001,0.11550999999999999,-0.808554,0.190754,-0.315336,0.043779000000000005,0.41507700000000003,-0.094682
404,-2.1311,-1.326274,-0.813228,-0.205067,0.970253,0.128654,-0.739772,0.8050649999999999,-0.28680100000000003,-0.091945,0.49991599999999997,0.018029
405,-2.150293,-1.3152979999999999,-0.856675,-0.211459,0.9675370000000001,0.138389,-0.754678,1.185936,-0.149592,-0.20438800000000001,0.43885,-0.066505
406,-2.161053,-1.3053299999999999,-0.887863,-0.21796,0.9649700000000001,0.146017,-0.45703,0.8720030000000001,-0.221886,-0.23788099999999998,0.178813,-0.08077000000000001
407,-2.135439,-1.299964,-0.881217,-0.226,0.963548,0.143156,0.131899,1.003541,-0.3269,-0.079496,0.36607199999999995,0.016252000000000003
408,-2.079735,-1.2967629999999999,-0.843642,-0.23631100000000002,0.9626870000000001,0.131854,0.48763,1.0069569999999999,-0.42376400000000003,-0.019212,0.31931,0.095487
409,-1.98787,-1.295585,-0.7726890000000001,-0.24844699999999997,0.962368,0.110079,1.0546200000000001,1.250392,-0.520528,0.048466,0.271183,0.124891
410,-1.8615270000000002,-1.294906,-0.66762,-0.260965,0.962183,0.078083,1.458984,1.2670379999999999,-0.5049060000000001,-0.07349299999999999,0.22884200000000002,0.09396
411,-1.714148,-1.293495,-0.54164,-0.270945,0.9617979999999999,0.039109,1.788487,1.338954,-0.39373800000000003,-0.098226,0.179178,0.100036
412,-1.548924,-1.289919,-0.397566,-0.277125,0.9608129999999999,-0.006062,2.0714810000000003,1.316039,-0.23684000000000002,-0.063802,0.086306,0.114476
413,-1.373429,-1.282091,-0.23814200000000002,-0.279177,0.9586129999999999,-0.055827,2.390387,0.961752,-0.093153,-0.044157,0.07752,0.18053699999999998
414,-1.199266,-1.264551,-0.06990199999999999,-0.280906,0.953472,-0.109448,2.737832,0.526382,-0.20980900000000002,-0.041039,0.089298,0.266034
415,-1.044132,-1.2324549999999999,0.08681799999999999,-0.286939,0.943306,-0.16683900000000002,3.028518,0.124819,-0.48176599999999997,-0.031389999999999994,0.14051,0.196716
416,-0.9298719999999999,-1.186022,0.220234,-0.300856,0.926883,-0.224433,3.367954,-0.978159,-0.67133,-0.03203,0.132443,0.198798
417,-0.846247,-1.129499,0.33775,-0.319819,0.904198,-0.283087,3.760277,-1.108163,-0.734653,-0.058401,0.096702,0.246405
418,-0.7741979999999999,-1.066359,0.43735799999999997,-0.337904,0.875446,-0.34556,3.803409,-0.713322,-0.678242,0.032072,-0.021351,0.2091
419,-0.7121310000000001,-1.003109,0.518965,-0.35134699999999996,0.843147,-0.407009,3.689683,-0.291432,-0.589846,0.074995,-0.052345,0.19706400000000002
420,-0.6655340000000001,-0.93745,0.579546,-0.365451,0.806052,-0.46553599999999995,3.513262,-0.16936500000000002,-0.859359,0.035082999999999996,0.004449,0.15503499999999998
421,-0.638817,-0.873099,0.619333,-0.38306,0.766323,-0.515763,3.241003,-0.160221,-1.0450059999999999,-0.024761000000000002,0.117374,0.23501599999999997
422,-0.616413,-0.805606,0.651813,-0.400443,0.721251,-0.565191,3.4214559999999996,-0.218009,-1.1355389999999999,-0.031229000000000003,0.064287,0.20566399999999999
423,-0.6068439999999999,-0.736788,0.677962,-0.422364,0.671912,-0.608392,3.239026,-0.535561,-1.218659,0.031572,0.07552400000000001,0.20713099999999998
424,-0.604797,-0.674613,0.6954779999999999,-0.444043,0.624595,-0.642422,2.765044,-0.37937,-1.239262,0.12138099999999999,0.024026,0.192028
425,-0.604221,-0.616453,0.704526,-0.463549,0.578145,-0.6714680000000001,2.511621,-0.212639,-1.422843,0.122073,-0.043111000000000003,0.242589
426,-0.605382,-0.560477,0.709472,-0.482008,0.53159,-0.696476,2.391268,-0.188697,-1.445079,0.116148,-0.035756,0.24998800000000002
427,-0.605581,-0.508343,0.712259,-0.49726000000000004,0.48673,-0.71821,2.080012,-0.028219,-1.347046,0.135596,-0.073522,0.23629099999999997
428,-0.607533,-0.4642,0.711947,-0.510437,0.44770699999999997,-0.734174,1.659398,-0.20194700000000002,-1.226916,0.161759,-0.173751,0.236386
429,-0.6149319999999999,-0.42868199999999995,0.7090270000000001,-0.524701,0.41567299999999996,-0.7429020000000001,1.197128,-0.325705,-1.046252,0.11668099999999999,-0.251748,0.220106
430,-0.622505,-0.40421399999999996,0.70324,-0.536083,0.393296,-0.746948,0.615458,-0.181703,-0.856083,0.150555,-0.17421099999999998,0.22480799999999998
431,-0.627239,-0.391207,0.6950729999999999,-0.54257,0.381305,-0.7484810000000001,0.15176800000000001,-0.040629000000000005,-0.568947,0.13014,-0.165622,0.25217399999999995
432,-0.629811,-0.388139,0.68714,-0.545179,0.378467,-0.748025,-0.25965900000000003,0.089639,-0.288908,0.098478,-0.20111400000000001,0.21174
433,-0.629183,-0.395041,0.677466,-0.5431590000000001,0.384846,-0.746238,-0.680334,0.222379,-0.08585,0.094612,-0.274891,0.11601900000000001
434,-0.632429,-0.408319,0.66672,-0.54251,0.397067,-0.740283,-0.92529,-0.031872000000000004,0.038814999999999995,0.086242,-0.189272,0.09227300000000001
435,-0.6361939999999999,-0.42712,0.655001,-0.540762,0.41425200000000006,-0.7321,-1.1567319999999999,0.12708599999999998,0.181204,0.05625,-0.089331,-0.037263
436,-0.637107,-0.4513,0.6426569999999999,-0.5353140000000001,0.43613599999999997,-0.723342,-1.385213,0.227465,0.318349,-0.040675,-0.040659,-0.15262
437,-0.641187,-0.477522,0.6305649999999999,-0.5312359999999999,0.45958000000000004,-0.7117399999999999,-1.256556,-0.089442,0.33674499999999996,-0.192839,0.056335,-0.417838
438,-0.650781,-0.493075,0.623943,-0.533645,0.473337,-0.700838,-0.543094,-0.359547,0.132703,-0.47877600000000003,0.5484829999999999,-0.201521
439,-0.654455,-0.50527,0.6170680000000001,-0.532663,0.484044,-0.694241,-0.8618389999999999,0.050164,0.24745599999999998,-0.37802800000000003,0.612529,-0.231525
440,-0.651373,-0.524382,0.61445,-0.5248149999999999,0.500678,-0.688396,-0.8579620000000001,0.526083,0.574817,0.087559,0.366266,-0.34975100000000003
441,-0.6367619999999999,-0.560628,0.6053229999999999,-0.503575,0.531718,-0.680946,-2.1446970000000003,1.077861,0.899476,0.016835,-0.32045999999999997,0.343589
442,-0.629412,-0.605544,0.590734,-0.48399899999999996,0.56921,-0.6646380000000001,-2.114436,0.604051,0.813769,-0.048319,-0.050441,0.222912
443,-0.624319,-0.648928,0.5794279999999999,-0.465725,0.604333,-0.646437,-1.960551,0.5380689999999999,0.9302959999999999,0.138241,0.35715399999999997,0.029219
444,-0.622795,-0.68793,0.570353,-0.45064099999999996,0.634939,-0.627514,-1.6952330000000002,0.316158,0.7839510000000001,-0.037288999999999996,0.44253000000000003,0.070004
445,-0.621885,-0.725735,0.558724,-0.435767,0.663686,-0.60797,-1.923372,0.546175,0.736129,-0.07535599999999999,0.025188,0.07025
446,-0.620503,-0.768755,0.539529,-0.41792799999999997,0.695241,-0.5847859999999999,-2.295143,0.8226680000000001,0.645584,0.093999,-0.142399,0.073617
447,-0.621387,-0.814864,0.512834,-0.399345,0.727632,-0.55774,-2.454382,0.881224,0.525824,0.192298,0.07119600000000001,0.118103
448,-0.6301859999999999,-0.8591709999999999,0.48129099999999997,-0.384848,0.757301,-0.527622,-2.3662970000000003,0.657691,0.406016,0.191183,0.25077,0.176807
449,-0.643908,-0.90095,0.449913,-0.37272,0.783917,-0.49654,-2.220264,0.45983,0.475656,0.143091,0.21528899999999998,0.173862
450,-0.6578149999999999,-0.9433010000000001,0.420235,-0.358957,0.809501,-0.464604,-2.257088,0.479625,0.6185149999999999,0.076365,0.018014,0.09059600000000001
451,-0.675582,-0.987899,0.387289,-0.34421999999999997,0.834872,-0.42953500000000006,-2.378003,0.43834799999999996,0.656179,0.060239,-0.073122,0.09274299999999999
452,-0.7023560000000001,-1.033505,0.346495,-0.330638,0.8590979999999999,-0.390675,-2.459879,0.40174299999999996,0.5573779999999999,0.039729,-0.086286,0.20030599999999998
453,-0.734218,-1.075323,0.298297,-0.318552,0.8797440000000001,-0.35294899999999996,-2.2837,0.5677260000000001,0.45477799999999996,0.025004,-0.034834,0.23130599999999998
454,-0.764991,-1.113656,0.24796700000000002,-0.30567,0.8973180000000001,-0.31840799999999997,-2.157149,0.739757,0.481079,0.046835,-0.08945700000000001,0.233431
455,-0.802562,-1.151438,0.192476,-0.292813,0.913351,-0.28293,-2.137325,0.616213,0.45680699999999996,0.086224,-0.137624,0.19786199999999998
456,-0.8476549999999999,-1.182187,0.126614,-0.284072,0.9254370000000001,-0.250734,-1.9152310000000001,0.813793,0.138707,0.048507,-0.03292,0.126146
457,-0.896965,-1.2062959999999998,0.054939999999999996,-0.278566,0.9343020000000001,-0.222437,-1.7065549999999998,0.914428,0.09944299999999999,-0.010131,0.092263,0.093073
458,-0.940366,-1.230546,-0.011856,-0.26957,0.9426709999999999,-0.196725,-1.608989,1.030275,0.347804,0.019799,-0.043516,0.124231
459,-0.976303,-1.254469,-0.07331,-0.257704,0.950384,-0.17423,-1.450343,1.0305,0.42048199999999997,0.101485,-0.148382,0.050435
460,-1.023204,-1.274303,-0.13911199999999999,-0.249444,0.956367,-0.15211,-1.343246,0.704872,0.24111799999999997,0.092553,-0.126075,-0.044682
461,-1.0830739999999999,-1.292071,-0.21633400000000003,-0.243046,0.961407,-0.128928,-1.401842,0.7062109999999999,0.22361599999999998,0.137181,0.016483,-0.023278
462,-1.149752,-1.307864,-0.302977,-0.237208,0.9656319999999999,-0.106228,-1.3772010000000001,0.911942,0.169045,0.121974,0.056936,-0.027348
463,-1.223096,-1.3196350000000001,-0.39709099999999997,-0.23365100000000003,0.9686239999999999,-0.08468099999999999,-1.2982200000000002,0.811962,0.061834,0.055626999999999996,0.043842,-0.035574
464,-1.302693,-1.327696,-0.490634,-0.232107,0.9705959999999999,-0.063764,-1.1378979999999999,0.37793000000000004,0.038941,0.048056,-0.10202,-0.10258699999999998
465,-1.3721940000000001,-1.333423,-0.56615,-0.23051999999999997,0.971959,-0.046393000000000004,-0.8359540000000001,0.162681,0.059486000000000004,0.038504000000000004,-0.020238,-0.117105
466,-1.434959,-1.336167,-0.63713,-0.23033299999999998,0.972601,-0.031481999999999996,-0.889,0.379423,-0.026588999999999998,0.11015499999999999,0.198267,-0.17916600000000002
467,-1.507978,-1.338059,-0.717908,-0.230179,0.973039,-0.014478,-0.937106,0.178022,0.031017000000000003,0.18165599999999998,0.133376,-0.177965
468,-1.5795,-1.339172,-0.791335,-0.229541,0.973295,0.001998,-0.7527,-0.109127,0.018786,0.11836500000000001,0.171786,-0.179595
469,-1.629275,-1.3387870000000002,-0.8389280000000001,-0.229532,0.9732059999999999,0.013438,-0.45315600000000006,-0.206943,-0.021725,0.021081,0.237105,-0.22132399999999997
470,-1.6651639999999999,-1.337601,-0.8718629999999999,-0.23005,0.972933,0.021774,-0.347071,-0.124141,-0.041386,0.003518,0.299009,-0.203872
471,-1.681227,-1.3342530000000001,-0.8928280000000001,-0.232907,0.9721540000000001,0.025825,-0.210348,0.436472,-0.22915700000000003,-0.066089,0.43608,-0.06491799999999999
472,-1.675116,-1.327707,-0.896415,-0.239387,0.970599,0.025064,0.026768,0.361617,-0.363068,-0.082452,0.4586,-0.037712999999999997
473,-1.6517959999999998,-1.320151,-0.8724719999999999,-0.247209,0.9687530000000001,0.020068,0.414131,-0.14765799999999998,-0.41418900000000003,-0.035872,0.435575,0.014722
474,-1.595312,-1.31372,-0.814055,-0.254171,0.9671379999999999,0.006232,0.8545459999999999,0.160329,-0.294003,-0.048121,0.334895,0.08005599999999999
475,-1.525268,-1.311024,-0.749692,-0.25658800000000004,0.966448,-0.01169,0.769734,0.48471099999999995,-0.08884500000000001,-0.252216,0.09478500000000001,0.031465
476,-1.448555,-1.304017,-0.68204,-0.261652,0.964625,-0.032145,1.090729,0.595722,-0.422166,-0.195684,0.006689,0.061762
477,-1.3292329999999999,-1.2842559999999998,-0.565864,-0.27442300000000003,0.959227,-0.067611,2.2194599999999998,0.165245,-0.8410190000000001,-0.12871400000000002,0.23951799999999998,-0.013505000000000001
478,-1.17184,-1.246091,-0.397671,-0.293971,0.9477450000000001,-0.123928,3.374798,-0.302408,-1.043858,0.0019030000000000002,0.399698,-0.038487
479,-1.02526,-1.196623,-0.229679,-0.312447,0.93081,-0.189649,3.802651,-0.709904,-0.742313,0.173257,0.309531,0.016798
480,-0.907523,-1.145867,-0.081138,-0.324848,0.911068,-0.253824,3.785336,-1.030159,-0.293371,0.265979,0.320255,0.30851100000000004
481,-0.819094,-1.096932,0.036905,-0.333359,0.889811,-0.311618,3.3183809999999996,-0.856349,-0.19751,0.226654,0.352956,0.355242
482,-0.759851,-1.050144,0.12546,-0.342646,0.8674950000000001,-0.360617,3.143552,-0.972218,-0.10778399999999999,0.24615,0.196241,0.302267
483,-0.707507,-0.9997530000000001,0.208238,-0.351298,0.8413379999999999,-0.410778,3.4139,-0.9038120000000001,-0.132689,0.13087000000000001,0.02408,0.271679
484,-0.669177,-0.9410850000000001,0.28008299999999997,-0.365325,0.808197,-0.46190200000000003,3.61769,-1.177185,-0.409721,-0.04651,-0.12071300000000001,0.15729
485,-0.654529,-0.877159,0.338125,-0.389219,0.768926,-0.507208,3.6242160000000005,-1.7848330000000001,-0.571267,-0.174929,-0.342565,0.245184
486,-0.6480630000000001,-0.814485,0.391074,-0.414245,0.727372,-0.5471090000000001,3.481239,-1.44812,-0.469079,-0.032517000000000004,-0.281404,0.24819000000000002
487,-0.6376970000000001,-0.757138,0.43470699999999995,-0.4327,0.686844,-0.583964,3.018964,-0.8540200000000001,-0.520071,0.211997,-0.09916699999999999,0.181376
488,-0.635563,-0.7065779999999999,0.464657,-0.451508,0.649235,-0.612073,2.562409,-0.964835,-0.650237,0.310273,0.053249,0.21917399999999998
489,-0.6374,-0.656697,0.48971499999999996,-0.471333,0.610504,-0.636497,2.625178,-0.8443649999999999,-0.7279329999999999,0.210362,0.080612,0.234337
490,-0.641076,-0.6048859999999999,0.514054,-0.491942,0.5686680000000001,-0.659248,2.680516,-0.910465,-0.762713,0.102904,-0.013919999999999998,0.290977
491,-0.6445890000000001,-0.553652,0.536045,-0.511105,0.5257970000000001,-0.679932,2.525862,-0.704162,-0.80465,0.041364,-0.12172899999999999,0.22819499999999998
492,-0.64879,-0.5061140000000001,0.554647,-0.528474,0.484782,-0.696922,2.2892240000000004,-0.667077,-0.8159649999999999,0.088166,-0.037699,0.223625
493,-0.653366,-0.461462,0.567836,-0.544281,0.445258,-0.710987,2.021943,-0.41647,-0.9174969999999999,0.15809700000000002,0.013422,0.203785
494,-0.655712,-0.42126,0.5772609999999999,-0.5564180000000001,0.40891,-0.7233189999999999,1.758475,-0.335931,-0.8500059999999999,0.158545,-0.014622999999999999,0.16986800000000002
495,-0.659981,-0.386965,0.585154,-0.567768,0.377379,-0.731589,1.455777,-0.355725,-0.69934,0.086064,-0.077559,0.15634800000000001
496,-0.663385,-0.360586,0.590929,-0.576186,0.35282199999999997,-0.737242,1.042753,-0.223911,-0.537887,0.08111499999999999,-0.05481799999999999,0.169691
497,-0.664569,-0.343903,0.593911,-0.580608,0.33716399999999996,-0.7410899999999999,0.57316,-0.037808999999999995,-0.317079,0.092968,-0.108832,0.164445
498,-0.66333,-0.336331,0.5954729999999999,-0.581245,0.33002600000000004,-0.743799,0.21954,0.066969,-0.10603900000000001,0.11461600000000001,-0.16130999999999998,0.13138699999999998
499,-0.660917,-0.33615500000000004,0.5955550000000001,-0.579484,0.32986,-0.7452449999999999,-0.121173,0.141026,0.050651,0.068833,-0.182841,0.130911
500,-0.659351,-0.344034,0.593426,-0.576706,0.337287,-0.744074,-0.5257310000000001,0.039437,0.23168899999999998,0.052948,-0.198722,0.133967
501,-0.6635409999999999,-0.359581,0.589408,-0.576519,0.35188200000000003,-0.73743,-0.8337370000000001,-0.211504,0.382615,0.105023,-0.222137,0.06729500000000001
502,-0.66967,-0.381268,0.583782,-0.576155,0.372098,-0.7277279999999999,-1.148855,-0.17043599999999998,0.508548,0.132322,-0.231992,-0.005564
503,-0.674624,-0.410869,0.573952,-0.572621,0.399406,-0.715947,-1.592267,-0.008315000000000001,0.576814,0.039692000000000005,-0.25461500000000004,-0.027445999999999998
504,-0.6786399999999999,-0.43861300000000003,0.564086,-0.568314,0.424684,-0.704742,-1.104198,-0.021234,0.45419,-0.04306,-0.27668899999999996,-0.153092
505,-0.6865359999999999,-0.44900200000000007,0.5598390000000001,-0.571034,0.434067,-0.696782,-0.154218,-0.518451,0.09719900000000001,-0.5843619999999999,0.98645,-0.46035299999999996
506,-0.701576,-0.454401,0.566438,-0.5799270000000001,0.438924,-0.686316,-0.21770799999999998,-1.0381719999999999,0.65076,-0.132536,0.39476999999999995,-0.6205229999999999
507,-0.70248,-0.481609,0.5694060000000001,-0.572617,0.46320600000000006,-0.676424,-1.4580819999999999,0.383573,1.025902,0.176224,0.020605000000000002,-0.352598
508,-0.7006479999999999,-0.525425,0.551074,-0.5577479999999999,0.501581,-0.661312,-2.3385119999999997,0.442425,0.658618,-0.221137,-0.201456,0.276592
509,-0.699182,-0.566145,0.532119,-0.543175,0.5363829999999999,-0.645951,-2.023814,0.842252,0.831219,-0.206215,0.372141,0.017091
510,-0.684441,-0.613135,0.518375,-0.517076,0.575434,-0.633645,-2.238666,1.02725,1.107219,-0.009123000000000001,0.548833,-0.082358
511,-0.679505,-0.660284,0.503858,-0.496327,0.613341,-0.614386,-2.1429669999999996,0.595973,0.984527,-0.005824,0.21809499999999998,0.181647
512,-0.677235,-0.7057869999999999,0.486863,-0.476937,0.648633,-0.593132,-2.271166,0.673609,0.8617540000000001,-0.017128,0.046451,0.201408
513,-0.680392,-0.752043,0.46084899999999995,-0.459426,0.683132,-0.5676760000000001,-2.476641,0.748871,0.600645,0.052261,-0.090374,0.15501800000000002
514,-0.6873100000000001,-0.798478,0.425964,-0.44272399999999995,0.716295,-0.539365,-2.647987,0.9311659999999999,0.44966300000000003,0.215292,0.170226,0.145963
515,-0.7022470000000001,-0.8456739999999999,0.383303,-0.42840100000000003,0.748418,-0.506301,-2.814314,0.672003,0.4029,0.208934,0.24383000000000002,0.134796
516,-0.729528,-0.896992,0.335748,-0.415882,0.781453,-0.465157,-3.009804,0.36286399999999996,0.624121,0.136783,0.30895500000000004,0.17281400000000002
517,-0.761498,-0.9526389999999999,0.284104,-0.399881,0.814948,-0.41946700000000003,-3.163208,0.598032,0.81079,0.044641,0.031686,0.20642399999999997
518,-0.7951189999999999,-1.011975,0.223985,-0.37852399999999997,0.84788,-0.371235,-3.340588,0.8900680000000001,0.926681,0.055679,-0.031062,0.164525
519,-0.8390989999999999,-1.070022,0.15152000000000002,-0.357215,0.8772110000000001,-0.320772,-3.277454,1.0098,0.766735,0.129447,0.005601,0.204241
520,-0.896234,-1.116832,0.059835,-0.342482,0.898716,-0.273885,-3.009085,1.3146280000000001,0.228767,0.105314,0.007809,0.17171199999999998
521,-0.967301,-1.1534719999999998,-0.047768,-0.333716,0.914177,-0.23002399999999998,-2.859279,1.2900989999999999,0.105931,0.064002,-0.010856999999999999,0.10485599999999999
522,-1.0469760000000001,-1.185818,-0.15934,-0.325181,0.9268069999999999,-0.187839,-2.59426,1.081824,0.278965,0.094072,-0.182361,-0.033199
523,-1.1326530000000001,-1.214772,-0.272113,-0.315623,0.93729,-0.147874,-2.41577,0.959583,0.32416500000000004,0.172404,-0.127476,0.021455000000000002
524,-1.217676,-1.237455,-0.387343,-0.30700900000000003,0.9449540000000001,-0.11315399999999999,-2.09599,1.3378379999999999,0.292799,0.2531,-0.152764,0.062998
525,-1.287783,-1.254053,-0.49006099999999997,-0.299077,0.950255,-0.086978,-1.640732,1.232008,0.25659099999999996,0.24789899999999998,-0.175291,-0.009244
526,-1.3535840000000001,-1.265384,-0.573704,-0.293615,0.953723,-0.064799,-1.221668,0.42644,0.214617,0.210943,-0.13875099999999999,0.04156
527,-1.410165,-1.273405,-0.6382180000000001,-0.289249,0.9561040000000001,-0.046866000000000005,-0.929522,0.14632799999999999,0.213811,0.19398800000000002,-0.179798,-0.016061000000000002
528,-1.460089,-1.2803309999999999,-0.689276,-0.284638,0.958111,-0.031641,-0.68465,-0.136036,0.28425,0.170625,-0.134151,-0.046911
529,-1.499627,-1.286979,-0.7288819999999999,-0.279307,0.959994,-0.019912,-0.545018,0.040441000000000005,0.252952,0.108118,0.035078,-0.003618
530,-1.529788,-1.292136,-0.763549,-0.27483,0.961425,-0.011276999999999999,-0.47407299999999997,0.125548,0.22022399999999998,0.096073,0.059312000000000004,-0.05722000000000001
531,-1.558602,-1.2959209999999999,-0.7937529999999999,-0.271401,0.9624590000000001,-0.00331,-0.39026500000000003,-0.053417,0.147332,0.073738,-0.030558999999999996,-0.052599
532,-1.591208,-1.298052,-0.8236870000000001,-0.269313,0.9630350000000001,0.005497999999999999,-0.41119700000000003,-0.244914,0.102565,0.081843,0.020272,-0.012929
533,-1.621202,-1.299144,-0.8504780000000001,-0.267977,0.9633290000000001,0.013519,-0.308098,-0.171458,0.025211,0.078813,0.108662,0.008026
534,-1.642325,-1.297244,-0.868751,-0.269457,0.962817,0.019306999999999998,-0.234077,-0.229708,-0.123748,0.025575999999999998,0.135968,-0.028569
535,-1.6530770000000001,-1.2976969999999999,-0.873775,-0.2688,0.96294,0.022167,-0.237102,-0.392827,-0.088309,0.012315000000000001,0.146405,-0.134792
536,-1.6688450000000001,-1.30211,-0.8832030000000001,-0.264185,0.9641200000000001,0.025986000000000002,-0.326766,-0.336323,-0.02171,0.12948099999999998,0.194113,-0.129487
537,-1.6973650000000002,-1.30011,-0.9090969999999999,-0.26524899999999996,0.9635879999999999,0.033753,-0.352981,-0.095084,-0.120478,0.212088,0.34328200000000003,-0.034194999999999996
538,-1.7166290000000002,-1.294503,-0.9278129999999999,-0.269891,0.962073,0.039639999999999995,-0.235873,-0.078847,-0.28632399999999997,0.074762,0.495446,-0.012875999999999999
539,-1.7247709999999998,-1.288065,-0.931443,-0.275675,0.960297,0.042785000000000004,0.018144,-0.330991,-0.321614,0.015985,0.534484,-0.083557
540,-1.7135,-1.282095,-0.9092469999999999,-0.28180900000000003,0.958614,0.04049,0.422597,-0.585775,-0.360123,0.10373900000000001,0.548817,-0.137262
541,-1.665736,-1.276518,-0.853075,-0.28873899999999997,0.9570120000000001,0.027495,0.983241,0.004571,-0.3591,0.137189,0.55637,0.109605
542,-1.58707,-1.272848,-0.780855,-0.293518,0.955941,0.004777,0.989958,0.682592,-0.22532600000000003,-0.382767,0.201957,-0.017762
543,-1.511628,-1.262812,-0.712629,-0.302605,0.952947,-0.017925,1.149026,0.247119,-0.685129,-0.356865,0.036647000000000006,-0.041752
544,-1.416458,-1.239012,-0.603018,-0.321856,0.9454629999999999,-0.050073,2.410425,-0.799601,-1.090515,-0.19885,-0.084379,0.06994
545,-1.269325,-1.201537,-0.42786,-0.344646,0.9325950000000001,-0.10716700000000001,3.781736,-0.818896,-1.183461,-0.075459,0.25246399999999997,0.040761
546,-1.123629,-1.1500549999999998,-0.25643,-0.36827600000000005,0.9127870000000001,-0.17661300000000002,4.028069,-0.522886,-1.096662,-0.058161000000000004,0.27186,0.092461
547,-1.00557,-1.099927,-0.11234300000000001,-0.383101,0.891174,-0.242983,3.86219,-0.685833,-0.431041,0.065093,0.27270500000000003,0.21535
548,-0.9051899999999999,-1.0549790000000001,0.018475,-0.38795799999999997,0.8698899999999999,-0.304597,3.825906,-0.771331,0.201202,0.213657,0.433379,0.271104
549,-0.819113,-1.009874,0.143006,-0.388623,0.846765,-0.363264,3.935108,-1.234703,0.36706500000000003,0.183423,0.540946,0.24435199999999999
550,-0.760926,-0.9572229999999999,0.251191,-0.39706199999999997,0.817596,-0.416987,3.995332,-1.7488540000000001,0.22073,0.194776,0.5396890000000001,0.206981
551,-0.716653,-0.9030610000000001,0.347484,-0.406736,0.785226,-0.46688900000000005,3.888097,-1.5411219999999999,0.31265,0.075544,0.07356900000000001,0.23217800000000002
552,-0.69229,-0.8444969999999999,0.42634799999999995,-0.4239,0.747637,-0.51122,3.884532,-2.070875,-0.13855399999999998,-0.036594999999999996,-0.012042,0.25960300000000003
553,-0.683555,-0.778817,0.496119,-0.44950500000000004,0.702438,-0.5518390000000001,4.12487,-1.891191,-0.25995100000000004,-0.243229,-0.265045,0.361043
554,-0.667746,-0.7153649999999999,0.557954,-0.46741800000000006,0.6558930000000001,-0.592726,3.680848,-0.9215629999999999,-0.19806500000000002,0.011822,-0.342752,0.079084
555,-0.650965,-0.661745,0.601847,-0.47805,0.614495,-0.627586,2.842371,-0.594116,-0.372052,0.176445,-0.209481,0.059349
556,-0.647575,-0.6138979999999999,0.632325,-0.493105,0.576058,-0.6519229999999999,2.624486,-0.784553,-0.511131,0.339235,-0.013772,0.372794
557,-0.649729,-0.564481,0.660725,-0.511119,0.534978,-0.672723,2.711538,-0.9603079999999999,-0.590414,0.252498,-0.061482,0.402978
558,-0.653744,-0.514043,0.6862,-0.529566,0.49170200000000003,-0.6912229999999999,2.614575,-0.792331,-0.688515,0.182581,-0.068759,0.382141
559,-0.658058,-0.46629799999999993,0.706834,-0.546288,0.449583,-0.7067140000000001,2.339403,-0.585573,-0.7398399999999999,0.09172899999999999,-0.182752,0.29259
560,-0.660142,-0.42236,0.722713,-0.559341,0.40991400000000006,-0.720491,2.070494,-0.41291300000000003,-0.794283,0.138732,-0.11281,0.294817
561,-0.662434,-0.38408000000000003,0.7337100000000001,-0.570229,0.374706,-0.73105,1.6645849999999998,-0.234864,-0.746071,0.134224,-0.06525800000000001,0.264833
562,-0.663008,-0.353135,0.740891,-0.5775100000000001,0.345841,-0.73951,1.291025,-0.161551,-0.640884,0.11498599999999999,-0.041184,0.203835
563,-0.6637460000000001,-0.32981900000000003,0.74528,-0.582866,0.323872,-0.7452340000000001,0.885459,-0.041442,-0.488979,0.11452799999999999,-0.065006,0.17336500000000002
564,-0.661744,-0.316103,0.747158,-0.584048,0.310865,-0.749834,0.415858,0.14677300000000001,-0.263901,0.140932,-0.076703,0.164171
565,-0.6558609999999999,-0.313051,0.746799,-0.580203,0.307962,-0.754005,-0.079262,0.381838,-0.011287,0.10650899999999999,-0.113489,0.089851
566,-0.647292,-0.320819,0.743859,-0.57226,0.315344,-0.7570180000000001,-0.585209,0.5361640000000001,0.195421,0.043314,-0.12692799999999999,0.112258
567,-0.638738,-0.33864099999999997,0.737416,-0.5623239999999999,0.33220500000000003,-0.757252,-1.079948,0.511732,0.340479,0.015159,-0.136237,0.087712
568,-0.6308050000000001,-0.366076,0.727871,-0.550714,0.357954,-0.7540439999999999,-1.533785,0.614767,0.5348229999999999,0.000101,-0.082259,-0.06897
569,-0.622362,-0.401776,0.717793,-0.5365340000000001,0.39105300000000004,-0.7478020000000001,-1.797527,0.5285920000000001,0.734985,-0.072368,-0.029695,-0.263321
570,-0.623947,-0.43594399999999994,0.71054,-0.5296,0.422266,-0.7356729999999999,-1.262103,-0.278379,0.6767340000000001,-0.102755,-0.0009710000000000001,-0.492904
571,-0.632266,-0.4488,0.71246,-0.532449,0.433885,-0.7268020000000001,-0.066697,-0.339496,0.272828,-0.495429,1.2443229999999998,-0.581318
572,-0.645304,-0.46066999999999997,0.716213,-0.538744,0.44454799999999994,-0.715634,-0.542771,-0.784305,0.831958,0.08970800000000001,0.472612,-0.523075
573,-0.636422,-0.493753,0.722625,-0.5233359999999999,0.473934,-0.708171,-1.7779040000000002,0.9194559999999999,1.273005,0.21739699999999998,-0.57101,0.841609
574,-0.629322,-0.5459729999999999,0.712132,-0.5030279999999999,0.51925,-0.6908989999999999,-2.360729,-0.055648,1.0736299999999999,-0.26719,-0.242669,0.200985
575,-0.628209,-0.587757,0.70914,-0.489073,0.554496,-0.6733060000000001,-1.625086,0.711304,1.246565,-0.06569,0.696466,0.19683499999999998
576,-0.614529,-0.630363,0.70678,-0.465764,0.589438,-0.6600199999999999,-1.904398,0.48116499999999995,0.966103,-0.31456999999999996,0.5440149999999999,0.136705
577,-0.611985,-0.6737529999999999,0.693029,-0.448959,0.623923,-0.639653,-2.206627,0.700296,0.774636,0.060851,-0.12609,0.21088099999999999
578,-0.609688,-0.721592,0.673165,-0.42989099999999997,0.6605810000000001,-0.615488,-2.488962,0.7122350000000001,0.697873,0.135686,0.105716,0.24026
579,-0.615764,-0.769537,0.6452260000000001,-0.414839,0.695803,-0.586316,-2.562957,0.613371,0.44431400000000004,0.10360499999999999,0.175672,0.179715
580,-0.6257560000000001,-0.816059,0.610969,-0.40126799999999996,0.7284510000000001,-0.555285,-2.620364,0.825845,0.373138,0.041344,0.232211,0.057527999999999996
581,-0.6310720000000001,-0.8648450000000001,0.5754319999999999,-0.382774,0.760995,-0.523804,-2.697368,1.207797,0.560118,0.034751,0.08849299999999999,0.085328
582,-0.630049,-0.916286,0.541664,-0.358678,0.793346,-0.491886,-2.734737,1.342649,0.701758,0.090901,-0.078915,0.067523
583,-0.635359,-0.9713870000000001,0.506649,-0.334807,0.8256690000000001,-0.454064,-2.866946,1.043138,0.858247,0.160796,-0.12109400000000001,0.097177
584,-0.648382,-1.0279260000000001,0.469721,-0.311971,0.8562290000000001,-0.41175900000000004,-2.83288,0.817068,0.886548,0.23818000000000003,-0.15356199999999998,0.140519
585,-0.6726850000000001,-1.079798,0.427226,-0.29379,0.881863,-0.368789,-2.572613,0.563597,0.6451359999999999,0.281507,-0.192364,0.135116
586,-0.708691,-1.12259,0.376619,-0.282041,0.901226,-0.329006,-2.320551,0.404879,0.42491,0.222181,-0.13076400000000002,0.106563
587,-0.7593439999999999,-1.163584,0.31203800000000004,-0.27266,0.9182290000000001,-0.28725100000000003,-2.433385,0.407622,0.369639,0.09487899999999999,-0.128754,0.101735
588,-0.81592,-1.198999,0.24304499999999998,-0.26460500000000003,0.9316760000000001,-0.248926,-1.9947599999999999,0.383937,0.318254,-0.001661,-0.172124,0.040506
589,-0.8676719999999999,-1.227325,0.177228,-0.256887,0.941591,-0.21774899999999997,-1.7336599999999998,0.5036189999999999,0.265445,-0.015269,-0.114718,0.048117
590,-0.9260649999999999,-1.251683,0.10354400000000001,-0.250748,0.949514,-0.18854400000000002,-1.668857,0.553966,0.139783,0.104234,0.021647,0.044469999999999996
591,-0.990927,-1.269084,0.021618000000000002,-0.248581,0.954829,-0.16281600000000002,-1.396976,0.781824,-0.067981,0.071411,0.094792,0.012135
592,-1.046606,-1.281087,-0.05569400000000001,-0.247317,0.958327,-0.142983,-1.256253,0.96999,-0.092877,0.044024,0.015046,-0.020331000000000002
593,-1.105344,-1.290001,-0.136166,-0.247639,0.960835,-0.12437899999999999,-1.1252209999999998,0.8579549999999999,-0.161252,0.038624,-0.013493999999999999,-0.034023000000000005
594,-1.151402,-1.2953350000000001,-0.198561,-0.24841799999999997,0.9623,-0.110756,-0.76715,0.59227,-0.097522,0.12276199999999998,0.09235700000000001,-0.039573000000000004
595,-1.189674,-1.300571,-0.24778699999999998,-0.24779400000000001,0.9637110000000001,-0.09929500000000001,-0.736558,0.40947,0.035385,0.168356,0.20030599999999998,-0.058740999999999995
596,-1.240997,-1.309504,-0.309179,-0.24440599999999998,0.9660569999999999,-0.08366,-1.011682,0.375641,0.208695,0.086539,0.175011,-0.139484
597,-1.3117299999999998,-1.319089,-0.386276,-0.240744,0.9684889999999999,-0.063803,-1.086268,0.062037,0.1103,0.034095,0.112291,-0.191691
598,-1.390376,-1.323883,-0.466261,-0.240443,0.969671,-0.043858,-0.950873,-0.08494,-0.014616,-0.061208000000000005,0.165643,-0.149029
599,-1.459666,-1.3244120000000001,-0.5368729999999999,-0.242393,0.969801,-0.027049,-0.808987,0.004634,-0.16008599999999998,-0.152016,0.281512,-0.13973
600,-1.516157,-1.3203790000000002,-0.597765,-0.24743600000000002,0.968809,-0.013533000000000002,-0.672837,0.22532600000000003,-0.322856,-0.233673,0.363176,-0.06991699999999999
601,-1.5488309999999998,-1.3131680000000001,-0.638417,-0.254725,0.9669969999999999,-0.005596,-0.367794,0.352461,-0.41275500000000004,-0.155477,0.46761899999999995,-0.018711000000000002
602,-1.543218,-1.30539,-0.641475,-0.2622,0.964986,-0.007233,0.21758000000000002,0.560088,-0.361931,0.054589,0.434123,0.149399
603,-1.484758,-1.298497,-0.59906,-0.26795,0.9631549999999999,-0.023111000000000003,0.715316,1.00862,-0.273571,-0.096872,0.288462,0.084573
604,-1.41715,-1.289696,-0.544713,-0.27414299999999997,0.960751,-0.042456,0.869649,0.521927,-0.441717,-0.107235,0.053318,0.015783000000000002
605,-1.335392,-1.27203,-0.460236,-0.286223,0.9557,-0.068651,1.734784,-0.27459,-0.735892,-0.060457000000000004,0.180286,-0.013669999999999998
606,-1.219774,-1.241922,-0.32369699999999996,-0.303282,0.946406,-0.11105799999999999,2.862405,-0.9022290000000001,-0.86608,-0.026795999999999997,0.339116,-0.0218
607,-1.089227,-1.198328,-0.16794800000000001,-0.322527,0.9314319999999999,-0.16855499999999998,3.530651,-0.612549,-0.8938299999999999,0.064653,0.341411,0.00109
608,-0.962125,-1.147741,-0.023982,-0.33681700000000003,0.911839,-0.23474299999999998,3.7061919999999997,-0.193553,-0.59938,0.105296,0.282665,0.08036900000000001
609,-0.8604940000000001,-1.096913,0.093887,-0.345984,0.889803,-0.297566,3.4989739999999996,-0.264027,-0.37854699999999997,0.13960899999999998,0.351866,0.346394
610,-0.7895439999999999,-1.045448,0.187033,-0.356091,0.865149,-0.35315100000000005,3.3192720000000002,-0.8620059999999999,-0.399332,0.069897,0.419534,0.340974
611,-0.744433,-0.990591,0.268412,-0.371433,0.83635,-0.403183,3.5805,-1.302092,-0.327509,0.05948200000000001,0.332717,0.357986
612,-0.705864,-0.9310370000000001,0.346532,-0.387271,0.802239,-0.454349,3.7493809999999996,-1.22813,-0.322151,0.041339,0.07804,0.251804
613,-0.678736,-0.8668959999999999,0.41229799999999994,-0.406316,0.762323,-0.5037560000000001,3.817629,-1.256092,-0.581216,-0.109141,-0.228296,0.26013400000000003
614,-0.6617460000000001,-0.799037,0.466791,-0.428547,0.716685,-0.550191,3.725336,-1.030477,-0.7114050000000001,-0.103298,-0.253458,0.172994
615,-0.643355,-0.7346199999999999,0.507338,-0.44516400000000006,0.670305,-0.593734,3.2399080000000002,-0.203761,-0.838701,0.061635,-0.18504500000000002,0.226241
616,-0.624159,-0.676615,0.534573,-0.45566599999999996,0.626157,-0.6326890000000001,2.816975,0.12388099999999999,-0.889076,0.162743,-0.118147,0.252546
617,-0.621033,-0.623714,0.55467,-0.472317,0.584054,-0.66015,2.573928,-0.803035,-0.9130870000000001,0.33503299999999997,-0.020623,0.488839
618,-0.630119,-0.567988,0.5723590000000001,-0.496721,0.537937,-0.681096,2.710457,-0.9913360000000001,-1.094558,0.27257,-0.007542,0.43594799999999995
619,-0.639012,-0.513305,0.587105,-0.5195420000000001,0.491059,-0.69924,2.4642060000000003,-0.733648,-1.120109,0.158122,-0.057328,0.315299
620,-0.647663,-0.463341,0.597051,-0.539712,0.44693900000000003,-0.713411,2.143724,-0.625888,-1.157712,0.170175,-0.056909,0.290041
621,-0.6541239999999999,-0.41765699999999994,0.6030439999999999,-0.5561619999999999,0.40562,-0.725366,1.880509,-0.338339,-1.177011,0.132029,-0.048793,0.247842
622,-0.660532,-0.376716,0.605042,-0.570515,0.367868,-0.7342930000000001,1.540753,-0.406557,-1.1387040000000002,0.127643,-0.035944,0.211603
623,-0.667421,-0.34421399999999996,0.604191,-0.582655,0.337457,-0.7393489999999999,1.070065,-0.26504,-0.9563020000000001,0.049162,-0.056771,0.15321300000000002
624,-0.671636,-0.32161,0.6012460000000001,-0.590363,0.316094,-0.742668,0.6568970000000001,-0.096218,-0.725464,0.054810000000000005,-0.058801,0.13195
625,-0.671614,-0.307537,0.597463,-0.593056,0.302712,-0.7460899999999999,0.313444,0.145898,-0.502779,0.07167799999999999,-0.061715,0.123119
626,-0.667003,-0.301506,0.593041,-0.5907279999999999,0.296958,-0.750238,-0.019662,0.34313,-0.253258,0.106353,-0.182548,0.106744
627,-0.662267,-0.304576,0.588683,-0.586605,0.29988899999999996,-0.752304,-0.39266999999999996,0.259061,0.047619999999999996,0.13409000000000001,-0.230706,0.13211099999999998
628,-0.660678,-0.317685,0.58425,-0.582946,0.312368,-0.750067,-0.808755,0.07823300000000001,0.34084200000000003,0.19839400000000001,-0.24977600000000003,0.026876
629,-0.661147,-0.34078600000000003,0.578364,-0.578712,0.334228,-0.743898,-1.242783,0.119281,0.5749029999999999,0.072318,-0.145904,-0.19422799999999998
630,-0.660764,-0.3705,0.5717180000000001,-0.5720770000000001,0.362082,-0.735952,-1.3640290000000002,0.073465,0.682006,-0.064047,-0.13201,-0.37794
631,-0.667837,-0.390324,0.570218,-0.57271,0.380488,-0.726108,-0.45264099999999996,-0.567969,0.45952600000000005,-0.363768,0.05324299999999999,-0.34887399999999996
632,-0.674692,-0.40932399999999997,0.564669,-0.573054,0.397989,-0.716389,-1.34778,0.166888,0.482242,-0.343725,0.679251,-0.629634
633,-0.674914,-0.43697600000000003,0.562983,-0.566118,0.42320100000000005,-0.707397,-0.724853,-0.115176,0.948426,-0.14588800000000002,0.8032090000000001,-0.958649
634,-0.670081,-0.465742,0.5704859999999999,-0.554901,0.449086,-0.700291,-1.417139,0.49836899999999995,1.295318,0.350891,0.179302,0.259831
635,-0.6576350000000001,-0.513702,0.565465,-0.532354,0.491404,-0.68929,-2.11102,0.56397,1.209202,-0.129969,-0.187159,0.334584
636,-0.6555310000000001,-0.559211,0.55821,-0.516725,0.530517,-0.671972,-1.95935,0.322858,1.167842,-0.121931,0.032958999999999995,0.313848
637,-0.650014,-0.604455,0.551826,-0.497964,0.568314,-0.6550199999999999,-2.003295,0.446858,1.0990090000000001,-0.013038,0.315994,0.117575
638,-0.6504489999999999,-0.647742,0.5374680000000001,-0.48289,0.603387,-0.6346189999999999,-2.096348,0.47221899999999994,0.698812,-0.04453,0.300727,0.13178099999999998
639,-0.649844,-0.6890729999999999,0.5159819999999999,-0.467008,0.635822,-0.6145189999999999,-2.189367,0.7511899999999999,0.546117,0.012907,0.177532,0.16266
640,-0.6521060000000001,-0.732057,0.491353,-0.451384,0.668401,-0.591179,-2.345742,0.657821,0.587873,0.138869,0.05558300000000001,0.15473199999999998
641,-0.658971,-0.7779149999999999,0.46377700000000005,-0.436192,0.701796,-0.5632229999999999,-2.463648,0.549519,0.601076,0.21396300000000001,0.119203,0.107473
642,-0.669222,-0.8246600000000001,0.43400500000000003,-0.421116,0.734317,-0.532391,-2.4819150000000003,0.582358,0.662863,0.184086,0.209439,0.1004
643,-0.67453,-0.8715639999999999,0.406445,-0.401966,0.7653369999999999,-0.502676,-2.371323,0.880742,0.806395,0.061054,0.11033499999999999,0.065038
644,-0.67645,-0.9202540000000001,0.380217,-0.379134,0.795756,-0.472261,-2.4613080000000003,0.9114959999999999,0.9189579999999999,0.065444,0.033743,0.06010599999999999
645,-0.684412,-0.9708479999999999,0.35073699999999997,-0.35695,0.825365,-0.43744700000000003,-2.51748,0.73919,0.9006270000000001,0.128221,-0.084077,0.144585
646,-0.700879,-1.018765,0.316689,-0.338192,0.851461,-0.4008,-2.360906,0.518788,0.7374970000000001,0.168331,-0.158407,0.203855
647,-0.7270340000000001,-1.0599100000000001,0.276334,-0.324984,0.8723110000000001,-0.365319,-2.150101,0.41357700000000003,0.492345,0.159121,-0.161237,0.195855
648,-0.764257,-1.097251,0.22739600000000001,-0.315583,0.889957,-0.329217,-2.188156,0.128724,0.36532600000000004,0.090455,-0.099262,0.099465
649,-0.817736,-1.131372,0.16647,-0.31038499999999997,0.9049969999999999,-0.290933,-2.11179,0.11733800000000001,0.21632300000000002,-0.00034500000000000004,-0.116728,0.08957799999999999
650,-0.875189,-1.16182,0.09652000000000001,-0.305277,0.917528,-0.254848,-2.074035,0.41666899999999996,0.186292,-0.008001000000000001,-0.12780999999999998,0.057445
651,-0.932809,-1.190931,0.024138999999999997,-0.29785900000000004,0.928715,-0.220838,-1.941373,0.414524,0.341046,0.024238,-0.108723,-0.044375
652,-0.99236,-1.218551,-0.049954000000000005,-0.28888,0.9386,-0.18862,-1.8215439999999998,0.566133,0.418601,0.16626,0.08325,0.049185
653,-1.049434,-1.242092,-0.126648,-0.279927,0.9464610000000001,-0.16078299999999998,-1.6061239999999999,0.864288,0.26269499999999996,0.149175,-0.000767,0.08709800000000001
654,-1.101818,-1.258688,-0.199156,-0.273912,0.9516879999999999,-0.138786,-1.283989,0.741095,0.155076,0.09309500000000001,-0.041975,0.028845999999999997
655,-1.155708,-1.271272,-0.266301,-0.270009,0.955477,-0.118992,-1.140301,0.39769699999999997,0.125541,0.011495,0.07298099999999999,-0.046521
656,-1.210543,-1.281982,-0.334018,-0.266532,0.9585819999999999,-0.100401,-1.100801,0.636199,0.12123800000000001,0.051521000000000004,0.105413,-0.039034
657,-1.253824,-1.291226,-0.398427,-0.26219499999999996,0.961174,-0.086009,-0.9370219999999999,1.047676,0.175266,0.092487,0.086998,-0.08592799999999999
658,-1.2868549999999999,-1.30116,-0.451667,-0.255714,0.9638680000000001,-0.074624,-0.7892,0.810244,0.282357,0.076698,0.124999,-0.097312
659,-1.32768,-1.310178,-0.509185,-0.2501,0.966231,-0.062029999999999995,-0.884458,0.65964,0.19856300000000002,0.104348,0.15323,-0.08832999999999999
660,-1.381069,-1.3173139999999999,-0.571368,-0.246275,0.968045,-0.047294,-0.842181,0.09171900000000001,0.194245,0.15850699999999998,0.196689,-0.181618
661,-1.454569,-1.324748,-0.6429010000000001,-0.24192800000000003,0.9698829999999999,-0.028245999999999997,-0.9732940000000001,-0.32448,0.226978,0.148545,0.290234,-0.23260300000000003
662,-1.532845,-1.328654,-0.719443,-0.23960900000000002,0.970827,-0.009098,-0.850418,0.027292,0.06287899999999999,0.096986,0.273253,-0.198727
663,-1.574502,-1.326899,-0.7723260000000001,-0.241484,0.970404,0.000895,-0.508239,0.642911,-0.20578000000000002,-0.339861,0.370141,-0.099909
664,-1.586171,-1.320184,-0.795271,-0.247968,0.9687610000000001,0.0038130000000000004,-0.133852,0.46115900000000004,-0.36637,-0.264773,0.523366,0.004824
665,-1.550565,-1.3137,-0.773536,-0.25422100000000003,0.967132,-0.005144,0.5296350000000001,0.9709969999999999,-0.3015,-0.08891900000000001,0.580017,0.12094300000000001
666,-1.466407,-1.307065,-0.710411,-0.259265,0.965424,-0.027163,0.9708530000000001,1.0867040000000001,-0.315658,-0.213009,0.20118699999999998,0.091067
667,-1.368719,-1.293016,-0.620777,-0.268642,0.961666,-0.055038,1.5326110000000002,0.20708200000000002,-0.6097090000000001,-0.173405,0.061252,-0.005921
668,-1.2595129999999999,-1.268154,-0.498542,-0.28371999999999997,0.9545520000000001,-0.091285,2.30508,-0.7119439999999999,-0.823189,-0.089464,0.19608299999999998,-0.08957799999999999
669,-1.139227,-1.231395,-0.35232600000000003,-0.302396,0.9429540000000001,-0.13926,3.115157,-0.937183,-0.8759950000000001,0.0031260000000000003,0.334801,-0.041388999999999995
670,-1.009159,-1.183483,-0.200177,-0.319681,0.9259270000000001,-0.201154,3.670768,-0.395285,-0.751004,0.132227,0.315818,0.109098
671,-0.8935350000000001,-1.130894,-0.069386,-0.331862,0.9047930000000001,-0.266864,3.590758,-0.174312,-0.530725,0.135024,0.308738,0.300052
672,-0.810843,-1.079235,0.032112,-0.34214,0.881597,-0.32515700000000003,3.310579,-0.681926,-0.4188,0.095695,0.380808,0.349937
673,-0.767237,-1.025067,0.113147,-0.360292,0.854749,-0.37362199999999995,3.5100569999999998,-1.5417319999999999,-0.559446,-0.026885000000000003,0.315508,0.321864
674,-0.72222,-0.9601219999999999,0.19659200000000002,-0.37906,0.819261,-0.43026000000000003,4.1268839999999996,-0.9964649999999999,-0.522721,-0.046126,0.033156,0.311898
675,-0.684633,-0.890835,0.269958,-0.397622,0.777597,-0.487072,3.96196,-1.215016,-0.6037100000000001,-0.10044,-0.13736900000000002,0.195079
676,-0.670503,-0.820946,0.325413,-0.42348900000000006,0.731791,-0.533985,3.8318,-1.252869,-0.8812399999999999,-0.127933,-0.21766100000000002,0.24284699999999998
677,-0.656883,-0.751341,0.36748400000000003,-0.446248,0.682619,-0.5787,3.550524,-0.583445,-1.0111809999999999,0.09009299999999999,-0.095705,0.21519000000000002
678,-0.637788,-0.6835,0.398581,-0.46166899999999994,0.6315109999999999,-0.622941,3.326511,0.216923,-1.169732,0.12062,-0.055324,0.19745
679,-0.625024,-0.620105,0.419734,-0.476178,0.581121,-0.6599649999999999,2.9203200000000002,-0.232113,-1.211518,0.256268,0.052454999999999995,0.293265
680,-0.626456,-0.557488,0.43773599999999996,-0.497507,0.5290560000000001,-0.687449,3.067811,-0.6502100000000001,-1.2120879999999998,0.272165,0.141476,0.382242
681,-0.631617,-0.49387700000000007,0.456516,-0.519893,0.47404300000000005,-0.71063,2.972414,-0.7722899999999999,-1.236099,0.22823600000000002,0.033068,0.302976
682,-0.6377520000000001,-0.43457299999999993,0.470257,-0.540049,0.421023,-0.7287560000000001,2.6174720000000002,-0.5109239999999999,-1.288052,0.127909,-0.092486,0.376263
683,-0.645777,-0.379581,0.477732,-0.558982,0.370531,-0.741786,2.2816259999999997,-0.579584,-1.408882,0.109855,-0.072283,0.392176
684,-0.653367,-0.329871,0.48076199999999997,-0.57509,0.323921,-0.7512300000000001,1.916541,-0.34307,-1.3647340000000001,0.102312,-0.059471,0.244348
685,-0.657044,-0.288978,0.48106499999999996,-0.585453,0.284973,-0.75897,1.455637,-0.10275,-1.123638,0.145313,-0.12391600000000001,0.129133
686,-0.658569,-0.257986,0.481357,-0.591733,0.255134,-0.764695,1.125759,-0.085768,-0.8225889999999999,0.176984,-0.029700999999999998,0.201631
687,-0.659993,-0.23540500000000003,0.482917,-0.596202,0.233237,-0.768208,0.800033,-0.09012300000000001,-0.517211,0.127055,-0.06572599999999999,0.29280500000000004
688,-0.660742,-0.22383899999999998,0.483572,-0.5983930000000001,0.221975,-0.76984,0.26777199999999995,-0.011669,-0.228336,0.127125,-0.200399,0.259891
689,-0.659932,-0.22430300000000003,0.48104600000000003,-0.597705,0.22242699999999999,-0.770243,-0.298096,0.127854,0.002541,0.207767,-0.199157,0.214732
690,-0.6572640000000001,-0.23458800000000002,0.477501,-0.5942189999999999,0.23244299999999998,-0.769983,-0.6064069999999999,0.178919,0.286605,0.18346800000000002,-0.154455,0.133173
691,-0.653261,-0.25147800000000003,0.475426,-0.588662,0.248835,-0.7691279999999999,-0.815078,0.266085,0.513636,0.15946300000000002,-0.143367,-0.041862
692,-0.64766,-0.274829,0.47295299999999996,-0.58068,0.271383,-0.767569,-1.107993,0.283555,0.661118,0.100975,-0.144399,-0.098414
693,-0.6487890000000001,-0.301796,0.471235,-0.576913,0.29723499999999997,-0.760804,-1.101344,-0.23369,0.801765,-0.138037,-0.10999500000000001,-0.129654
694,-0.655522,-0.325278,0.47148100000000004,-0.577608,0.31957199999999997,-0.751161,-0.657791,-0.28545,0.5741930000000001,-0.583799,0.383355,-0.74858
695,-0.6576960000000001,-0.32806599999999997,0.47168000000000004,-0.578693,0.322213,-0.7491949999999999,-0.17229,-0.229048,-0.097604,-0.921048,0.9755780000000001,-0.5116689999999999
696,-0.670075,-0.35149600000000003,0.46829799999999994,-0.583073,0.344303,-0.735854,-1.17349,-0.114139,1.0703,-0.067211,0.118298,-0.579774
697,-0.663289,-0.387881,0.4736,-0.569972,0.378228,-0.7294350000000001,-1.615759,0.24645300000000003,1.320985,-0.12241099999999999,0.15903399999999998,-0.020077
698,-0.657489,-0.43194799999999994,0.47172700000000006,-0.555,0.418641,-0.718829,-1.559611,0.295662,1.220901,-0.137383,0.118621,-0.030683
699,-0.645303,-0.472788,0.4721,-0.535464,0.455371,-0.711278,-1.799025,0.76061,1.306227,-0.177503,0.486066,0.252202
700,-0.632301,-0.517826,0.46808500000000003,-0.51352,0.494993,-0.700913,-1.993364,0.775883,1.1189799999999999,-0.161834,-0.084775,0.186951
701,-0.6182380000000001,-0.5677180000000001,0.456438,-0.488678,0.537709,-0.687068,-2.5255080000000003,1.211671,1.024974,-0.095184,-0.078374,0.17583800000000002
702,-0.601352,-0.6236619999999999,0.435859,-0.459251,0.584012,-0.669342,-2.859624,1.4352639999999999,0.8108449999999999,0.040306,0.204151,0.217239
703,-0.5914159999999999,-0.679002,0.409329,-0.433875,0.628017,-0.6460239999999999,-2.8939310000000003,1.20818,0.619685,0.084205,0.252141,0.20646399999999998
704,-0.589468,-0.733808,0.378533,-0.412842,0.669702,-0.617301,-2.9474080000000002,1.071377,0.511596,0.047057999999999996,0.177298,0.196494
705,-0.5909909999999999,-0.788193,0.34312800000000004,-0.392886,0.70908,-0.585531,-3.002955,1.196599,0.41384,-0.011014,0.038585,0.153447
706,-0.5953890000000001,-0.843952,0.302526,-0.37268,0.747275,-0.550172,-3.148765,1.2833620000000001,0.421256,-0.004044,-0.008154,0.113054
707,-0.601797,-0.9028879999999999,0.258549,-0.35062600000000005,0.785119,-0.510538,-3.2466909999999998,1.443056,0.5303939999999999,0.06780499999999999,-0.03225,0.135462
708,-0.608686,-0.9620569999999999,0.21189899999999998,-0.326969,0.82037,-0.469132,-3.195036,1.536641,0.5252939999999999,0.143512,-0.074932,0.163056
709,-0.6255930000000001,-1.019,0.160529,-0.30696999999999997,0.851584,-0.424939,-3.096366,1.1242459999999999,0.4731,0.210092,-0.060645000000000004,0.157163
710,-0.657177,-1.070275,0.101482,-0.293153,0.877333,-0.37993299999999997,-2.8233599999999996,0.903566,0.278737,0.21771300000000002,-0.078276,0.140125
711,-0.69589,-1.114747,0.038391,-0.282329,0.8978,-0.338003,-2.568375,0.898435,0.27518400000000004,0.15806199999999998,-0.101733,0.09499099999999999
712,-0.735102,-1.157018,-0.026573000000000003,-0.269654,0.915608,-0.298241,-2.454336,1.004035,0.408304,0.1344,-0.161855,0.06469
713,-0.778269,-1.198604,-0.096442,-0.255305,0.9315319999999999,-0.258972,-2.442586,1.0803989999999999,0.481996,0.119594,-0.22346300000000002,0.083236
714,-0.8378549999999999,-1.240688,-0.178887,-0.24090799999999998,0.9460069999999999,-0.21687199999999998,-2.461305,0.7904,0.559149,0.050554,-0.224419,0.009290999999999999
715,-0.915113,-1.278153,-0.27497699999999997,-0.228661,0.957485,-0.17588900000000002,-2.237432,0.661086,0.46901099999999996,0.016671000000000002,-0.058588999999999995,-0.040251999999999996
716,-1.006424,-1.310832,-0.381375,-0.21718400000000002,0.966399,-0.13749,-2.0581240000000003,0.49723999999999996,0.528158,0.054647,0.023255,0.058007
717,-1.109747,-1.33863,-0.497104,-0.206062,0.9731700000000001,-0.102363,-1.80335,0.412347,0.49158999999999997,0.052055,-0.108623,0.154837
718,-1.220292,-1.358554,-0.617325,-0.197844,0.977561,-0.07233200000000001,-1.486315,0.275589,0.317723,-0.066057,-0.110252,0.113363
719,-1.332084,-1.370941,-0.733768,-0.192897,0.980095,-0.046942000000000005,-1.236148,0.051415999999999996,0.217209,-0.154408,-0.060112,-0.011575
720,-1.443769,-1.379673,-0.850407,-0.18843,0.981792,-0.024065,-1.196128,0.20560900000000001,0.25040500000000004,-0.094086,-0.085673,-0.082166
721,-1.5579040000000002,-1.387995,-0.97572,-0.18176900000000001,0.9833379999999999,-0.002343,-1.1799680000000001,0.604482,0.379289,0.054298,-0.081803,-0.057349000000000004
722,-1.677391,-1.39401,-1.11011,-0.174868,0.9844139999999999,0.018711000000000002,-1.196717,0.617559,0.320403,0.093966,-0.065453,0.010037
723,-1.8077779999999999,-1.394547,-1.2543440000000001,-0.17043699999999998,0.9845079999999999,0.041164,-1.2744389999999999,0.528848,0.194992,0.031521,-0.010218999999999999,0.003163
724,-1.940489,-1.390244,-1.395735,-0.16744,0.9837450000000001,0.064884,-1.229998,0.161367,0.146635,-0.048944999999999995,-0.0498,-0.062718
725,-2.055529,-1.382998,-1.5111,-0.165188,0.982418,0.086995,-1.0509680000000001,-0.178852,0.090638,-0.058414,-0.043544,-0.14868599999999998
726,-2.155045,-1.373433,-1.609847,-0.16355699999999998,0.9805870000000001,0.108154,-1.082231,-0.046515,0.057135000000000005,0.007719,0.032185000000000005,-0.21092199999999997
727,-2.2376840000000002,-1.361473,-1.6986150000000002,-0.163275,0.9781719999999999,0.128531,-1.042964,0.348699,0.023788,0.033698,0.105996,-0.155142
728,-2.29278,-1.349801,-1.7619759999999998,-0.164507,0.9756799999999999,0.14486300000000002,-0.778416,0.283024,-0.031964,0.072756,0.09020800000000001,-0.101497
729,-2.3174900000000003,-1.343261,-1.792847,-0.16555899999999998,0.974225,0.15321500000000002,-0.292998,0.315275,0.0066370000000000005,0.12639,0.122454,-0.109727
730,-2.310602,-1.344794,-1.796925,-0.165506,0.97457,0.151063,-0.236294,0.681157,0.10056699999999999,0.135736,0.22385500000000003,-0.11088699999999999
731,-2.307219,-1.347913,-1.8145419999999999,-0.16376300000000002,0.9752639999999999,0.14845999999999998,-0.256025,1.166477,0.22906300000000002,-0.04693,0.285051,-0.03199
732,-2.316507,-1.3488639999999998,-1.847443,-0.161696,0.975474,0.149345,-0.225017,1.0158770000000001,0.301043,-0.17952100000000001,0.23047399999999998,-0.204796
733,-2.330851,-1.351017,-1.877873,-0.15801500000000002,0.9759459999999999,0.150202,-0.109234,0.675609,0.311902,-0.013235,0.286597,-0.15249100000000002
734,-2.322827,-1.3579350000000001,-1.8850669999999998,-0.15428,0.9774309999999999,0.14431300000000002,0.390781,0.80395,0.28425100000000003,0.069654,0.362978,-0.05619299999999999
735,-2.27085,-1.3716899999999999,-1.847616,-0.151272,0.980244,0.127429,0.958227,0.710609,0.224241,0.14306300000000002,0.378384,-0.030398
736,-2.159222,-1.390272,-1.745855,-0.149346,0.98375,0.099655,1.5339639999999999,0.5459350000000001,0.147289,-0.119895,0.189727,-0.023117
737,-1.9638360000000001,-1.409949,-1.559699,-0.14794000000000002,0.987092,0.061338,2.0350080000000004,0.618004,0.071648,-0.15339,0.059127,0.032336000000000004
738,-1.655857,-1.418463,-1.262361,-0.151194,0.9884200000000001,0.012891999999999999,2.521784,0.800956,-0.280904,-0.21623699999999998,-0.06514099999999999,0.12428499999999999
739,-1.306326,-1.402608,-0.9290930000000001,-0.161575,0.9858899999999999,-0.043757,2.803677,1.171211,-0.67572,-0.342545,0.036724,0.227152
740,-1.020061,-1.364771,-0.667694,-0.174322,0.978852,-0.107054,3.057992,1.646853,-0.762147,-0.349101,0.07467599999999999,0.28417800000000004
741,-0.80761,-1.317452,-0.486609,-0.181123,0.9680799999999999,-0.173251,3.001104,1.818627,-0.5128010000000001,-0.24365100000000003,0.142119,0.268237
742,-0.680708,-1.276948,-0.374135,-0.182282,0.9571360000000001,-0.22508499999999998,2.164015,0.203797,-0.08608500000000001,-0.14537,0.197786,0.409991
743,-0.622158,-1.2451780000000001,-0.298149,-0.186432,0.9474530000000001,-0.259954,2.00496,-0.997302,-0.081384,-0.139435,0.22507800000000003,0.526449
744,-0.582611,-1.201934,-0.232291,-0.198379,0.932738,-0.301073,2.679243,-1.151467,-0.473855,-0.14715599999999998,0.274751,0.559893
745,-0.554941,-1.143725,-0.18095799999999998,-0.218243,0.910183,-0.352047,3.118682,-0.837248,-0.845066,-0.139789,0.011845,0.427716
746,-0.535134,-1.080191,-0.140799,-0.240271,0.8820479999999999,-0.405292,3.151774,-0.868116,-0.8800469999999999,-0.154275,-0.050566,0.39278
747,-0.527125,-1.018817,-0.11384200000000001,-0.263787,0.8514879999999999,-0.453194,2.851966,-0.575527,-1.061977,-0.101783,-0.075487,0.280877
748,-0.523856,-0.963887,-0.10575,-0.28529299999999996,0.821415,-0.49384799999999995,2.212634,-0.10384600000000001,-1.247577,-0.035874,-0.046833,0.187589
749,-0.531312,-0.9207569999999999,-0.112863,-0.306642,0.79606,-0.521784,1.53988,-0.001372,-1.2492020000000001,-0.000288,-0.020944,0.370157
750,-0.5382399999999999,-0.8867709999999999,-0.12422799999999999,-0.323937,0.775035,-0.542573,1.108474,0.046468999999999996,-1.117681,0.035699,-0.055843,0.39810300000000004
751,-0.550864,-0.8632709999999999,-0.140178,-0.340202,0.759973,-0.553809,0.5069779999999999,-0.012667,-0.992552,0.012168,-0.165048,0.31626
752,-0.566182,-0.8518879999999999,-0.161369,-0.35326199999999996,0.752525,-0.5557979999999999,-0.122922,0.06021900000000001,-0.8250620000000001,0.042364,-0.251854,0.30543200000000004
753,-0.58126,-0.8518709999999999,-0.187747,-0.361609,0.752514,-0.550419,-0.677124,0.352315,-0.663733,0.10948800000000002,-0.241024,0.277577
754,-0.594178,-0.862058,-0.21828499999999998,-0.36437800000000004,0.759184,-0.5393220000000001,-1.147342,0.602472,-0.47719399999999995,0.129332,-0.261778,0.252258
755,-0.605078,-0.8819239999999999,-0.252248,-0.361584,0.7719630000000001,-0.522809,-1.615551,0.8535729999999999,-0.261801,0.120449,-0.276632,0.216336
756,-0.615687,-0.912451,-0.291466,-0.35333200000000003,0.791006,-0.49946599999999997,-2.160727,1.07828,-0.039434,0.010558,-0.373525,0.149826
757,-0.629132,-0.955206,-0.33723400000000003,-0.339791,0.816433,-0.46688199999999996,-2.7643150000000003,1.19956,0.25743299999999997,-0.018501,-0.45920900000000003,0.080148
758,-0.646285,-1.011536,-0.389034,-0.31951599999999997,0.847648,-0.423559,-3.29471,1.379624,0.7085600000000001,-0.044254,-0.370841,-0.018686
759,-0.657293,-1.077258,-0.435468,-0.28944699999999995,0.8806620000000001,-0.375039,-3.217174,1.398361,1.282713,-0.073285,-0.052049,-0.232657
760,-0.658932,-1.135158,-0.459437,-0.258372,0.906601,-0.333644,-2.084698,0.749057,1.2380440000000001,0.316432,0.9269709999999999,-0.519857
761,-0.6194970000000001,-1.147778,-0.439097,-0.238355,0.911854,-0.334228,0.9816309999999999,1.305472,0.360375,0.011746,1.197826,-0.523423
762,-0.559996,-1.11268,-0.396201,-0.23492,0.8968870000000001,-0.374707,2.185564,0.554776,-0.49658199999999997,-0.367131,0.344934,-0.40336900000000003
763,-0.5496340000000001,-1.076458,-0.36232600000000004,-0.24784,0.880283,-0.404569,1.735882,-1.861909,0.05244,-0.789956,-0.926899,-0.302187
764,-0.559006,-1.065197,-0.325473,-0.256862,0.874884,-0.41060699999999994,0.236411,-1.7116740000000001,0.544906,-0.202977,-0.974433,0.06876499999999999
765,-0.572525,-1.0931799999999998,-0.331912,-0.249025,0.888093,-0.386362,-1.944357,0.465689,0.5856359999999999,-0.09939400000000001,0.095961,0.640986
766,-0.587952,-1.1312360000000001,-0.37596599999999997,-0.236029,0.9049389999999999,-0.354083,-1.9897060000000002,1.431176,0.006174,-0.530542,1.032241,0.5737180000000001
767,-0.593962,-1.141556,-0.40452899999999997,-0.23291399999999998,0.9092819999999999,-0.3449,0.206837,0.35634499999999997,-0.307187,-0.737133,0.963109,0.22260100000000002
768,-0.601104,-1.119548,-0.39966199999999996,-0.246631,0.8999030000000001,-0.359647,0.85414,-0.456558,-0.577225,0.014987,-0.486314,0.34589899999999996
769,-0.603,-1.139261,-0.435808,-0.23720500000000003,0.908324,-0.344499,-2.558488,2.646387,0.299746,0.42186599999999996,-0.751083,0.936235
770,-0.610221,-1.1929239999999999,-0.49338699999999996,-0.21142199999999997,0.9294520000000001,-0.302356,-2.5747970000000002,1.522161,0.669609,0.034099000000000004,0.183616,0.05443099999999999
771,-0.622889,-1.229841,-0.509858,-0.195075,0.942436,-0.271586,-1.373932,-0.0020670000000000003,0.914959,0.252845,0.8174060000000001,-0.101155
772,-0.595684,-1.270584,-0.513826,-0.165921,0.955274,-0.244786,-1.954209,2.526376,1.281543,0.319379,0.651889,0.12273099999999999
773,-0.539207,-1.320416,-0.518012,-0.127218,0.9688180000000001,-0.212614,-2.115095,2.941738,1.174151,-0.333445,-0.294151,0.341321
774,-0.514839,-1.363974,-0.539159,-0.10111,0.9786879999999999,-0.178726,-1.9569849999999998,1.782027,0.677882,-0.44085100000000005,-0.386739,0.263031
775,-0.564146,-1.402695,-0.611735,-0.08945499999999999,0.9859040000000001,-0.141377,-2.015749,0.8943139999999999,0.28123000000000004,-0.448204,-0.30109,0.169942
776,-0.665138,-1.440669,-0.739557,-0.080075,0.9915450000000001,-0.102089,-2.152761,1.6293360000000001,0.40431300000000003,-0.12152400000000001,0.071229,0.318245
777,-0.787892,-1.475696,-0.9101879999999999,-0.067298,0.995481,-0.066963,-1.7503819999999999,2.66637,0.458138,-0.026116000000000004,0.077929,0.306618
778,-0.913054,-1.5007489999999999,-1.087457,-0.055366,0.997548,-0.042769999999999996,-1.157516,2.358562,0.462674,0.08348799999999999,0.066844,0.19902
779,-1.0745120000000001,-1.5199280000000002,-1.283709,-0.044681,0.998707,-0.024194,-1.011551,1.3790069999999999,0.477767,0.105777,0.075619,0.14982
780,-1.491158,-1.5371270000000001,-1.721834,-0.033498,0.999433,-0.002673,-1.154544,0.9924290000000001,0.572335,0.014928,0.006319,0.163913
781,-2.270556,-1.542188,-2.521426,-0.021827000000000003,0.999591,0.018376,-1.02698,0.9501930000000001,0.634169,-0.019829,0.019986,0.038967
782,-2.873096,-1.530986,-3.1405279999999998,-0.010545,0.999208,0.038326,-0.96715,0.823802,0.488403,-0.050673,-0.041612,0.026126999999999997
783,-3.057614,-1.513571,2.939314,-0.004795000000000001,0.9983629999999999,0.056962,-0.9685239999999999,0.98777,0.244628,-0.164501,-0.096492,0.036177999999999995
784,-3.098643,-1.493467,2.878003,-0.0033159999999999995,0.9970120000000001,0.077155,-1.03186,0.9748020000000001,0.079696,-0.171214,-0.093615,0.035408999999999996
785,-3.095545,-1.4739799999999998,2.863571,-0.004449,0.995317,0.09654299999999999,-0.9221889999999999,0.832051,-0.014426,-0.14363800000000002,-0.09723,0.022384
786,-3.075502,-1.456428,2.867744,-0.007534999999999999,0.993467,0.113852,-0.8741270000000001,0.7714529999999999,-0.08665199999999999,-0.145022,-0.021330000000000002,-0.034827
787,-3.0605990000000003,-1.438375,2.867715,-0.010681,0.991245,0.13158499999999998,-0.910726,0.740521,-0.045207,-0.139817,0.040341,-0.11536500000000001
